id_in_session,code,_is_bot,_index_in_pages,_max_page_index,_current_app_name,_current_page_name,time_started_utc,visited,participant_code,session_code,is_demo,real_world_currency_per_point,name,participation_fee,id_in_group,payoff,reserve_m_1,reserve_m_2,value_1,value_1_1,value_1_2,value_1_3,value_1_4,value_1_5,value_1_6,value_2,value_2_1,value_2_2,value_2_3,value_2_4,value_2_5,value_2_6,value_1_max,value_2_max,reserve_p_2,upfront_2,random_m_1,random_m_2,reserve_2,profit_1,profit_2,profit,get_1,get_2,revenue,revenue_1,revenue_2,account_1,account_2,account,earn,bonus,getmyerson_1,getmyerson_2,getpost_2,lucky,finalpay,quiz1,quiz2,quiz3,quiz4,p_reserve_m_1,p_reserve_m_2,p_value_1,p_value_1_1,p_value_1_2,p_value_1_3,p_value_2,p_value_2_1,p_value_2_2,p_value_1_max,p_value_2_max,p_reserve_p_2,p_upfront_2,p_random_m_1,p_random_m_2,p_reserve_2,p_profit_1,p_profit_2,p_profit,p_get_1,p_get_2,p_revenue,p_revenue_1,p_revenue_2,p_getmyerson_1,p_getmyerson_2,p_getpost_2,p_bid_1,p_enter_2,p_bid_2,bid_1,enter_2,bid_2,lottery1,lottery2,lottery3,lottery4,lottery5,lottery6,lottery7,lottery8,lottery9,lottery10,survey1,survey2,survey3,survey4,survey5,survey6,surveyid,id_in_subsession,round_number,date,treatment,survey3grad,t,revenue_upfront,revenue_post,revenue_myerson,revenue_2_n,revenue_n,get_2_t,revenue_1_theory,upfront_theory,revenue_post_theory,revenue_2_theory,revenue_theory,revenue_post_t,revenue_2_enter,revenue_enter,revenue_n_t,revenue_min,revenue_min1,revenue_min2,diffbv_1,diffbv_2,overp1,overp2,diffbvp_1,diffbvp_2,over1,over2,diff1,diff2,diff_ave,profit_n,nonclair,risk,risks,theory_r1,theory_r2,theory_r,med1,lqt1,uqt1,iqr1,mean1,ls1,us1,outliers1,med,lqt,uqt,iqr,ls,us,mean,std,std1,std2,rev_1,std1t1,std2t1,rev_2,rev_t,rev_enter_t,rev_m,rev_m1,rev_m2,outliers,fpay,scenario,static
11,82z567qk,0,37,36,Non_clairvoyant_dynamic,Results,2021-09-14 16:27:40.827586,1,54,bbp27rqb,0,.1,Non_clairvoyant_dynamic,0,11,54,2,2,4,0,1,0,0,0,0,2,1,0,0,0,0,0,8,4,4,3,1,0,4,2,-3,4,1,0,5,2,3,52,49,54,5.4000001,5,1,1,0,8,15.4,0,0,1,0,4,4,2,1,0,0,6,0,1,4,12,4,1,1,0,4,0,1,1,0,1,5,0,5,0,1,1,1,1,7,3,1,2,1,1,1,1,0,0,0,0,0,0,1,21,3,3.5899999,,,11,1,1,914,1,,1,3,3,0,3,5,0,2,4,4,4,6,3,4,6,4.5,0,2.8,3,-1,0,0,0,.75,1,0,0,.75,1,.875,-1,1,4,4,1,3.5,4.5,4,2,6,4,4.5166669,12,2,,4,2,6,4,12,2,4.359375,2.5220752,4.6746345,4.0441155,.96875,1.2840095,.6534906,3.390625,4.5,4.46875,0,2.8,3,,16,Scenario A,0
14,6il5gfhb,0,37,36,Non_clairvoyant_dynamic,Results,2021-09-26 16:39:29.204065,1,68,5kbhy2vn,0,.1,Non_clairvoyant_dynamic,0,14,68,2,2,4,0,1,0,0,0,0,8,0,0,1,0,0,0,8,16,2,4,1,0,2,2,0,18,1,0,2,2,0,52,52,68,6.8000002,16,1,0,0,1,16.799999,0,0,1,0,4,4,6,0,0,1,4,1,0,12,8,1,4,0,0,1,6,0,6,1,,0,0,0,1,0,0,4,0,,4,0,,1,1,1,1,0,0,0,0,0,1,1,21,5,3,I made decisions in the first period by analyzing the percentage and the total random number .,By bidding a little more as i will get the price for secret price it self even if i bid more.,12,1,1,926,1,1,1,0,0,0,0,2,1,2,4,6,6,8,6,6,8,4.5,0,2.8,3,0,,0,1,1,,0,1,1,,0,2,1,4,5,1,3.5,4.5,,,,,,,,,4,2,6,4,12,2,4.359375,2.5220752,4.6746345,4.0441155,.96875,1.2840095,.6534906,3.390625,4.5,4.46875,0,2.8,3,,17,Scenario A,0
18,4zo57cxk,0,37,36,Non_clairvoyant_dynamic,Results,2021-09-13 16:41:57.156072,1,68,igdrqddk,0,.1,Non_clairvoyant_dynamic,0,18,68,2,2,4,0,1,0,0,0,0,2,1,0,0,0,0,0,8,4,2,4,1,1,2,2,0,18,1,1,8,2,6,52,52,68,6.8000002,16,1,1,1,2,16.799999,0,0,1,0,4,4,6,0,0,1,4,1,0,12,8,1,4,0,0,1,6,-1,5,1,1,5,0,5,1,1,1,4,1,6,4,1,3,1,1,1,1,0,0,0,0,0,0,0,20,2,3.9200001,"When making a decision in the first period, I decided to pick between numbers to try and guess the secret number.","When making a decision in the second period, I chose to pay the membership fee and then proceeded to choose a number so I could get the membership waived. ",18,1,1,913,1,,1,0,0,2,2,4,0,2,4,4,2,4,4,2,4,4.5,0,2.8,3,0,1,0,1,1,1.5,0,1,1,1.5,1.25,2,1,4,4,1,3.5,4.5,4,2,6,4,4.5166669,12,2,,4,2,6,4,12,2,4.359375,2.5220752,4.6746345,4.0441155,.96875,1.2840095,.6534906,3.390625,4.5,4.46875,0,2.8,3,,17,Scenario A,0
17,yotcp6av,0,37,36,Non_clairvoyant_dynamic,Results,2021-10-10 16:35:06.273170,1,70,ihlggr6e,0,.1,Non_clairvoyant_dynamic,0,17,70,2,2,4,0,0,0,0,0,0,16,0,0,0,0,0,0,8,32,1,5,1,0,1,2,10,20,1,1,8,2,6,52,62,70,7,8,1,1,1,7,17,0,0,1,0,4,4,2,1,0,0,6,0,1,4,12,1,4,1,1,4,-2,2,0,1,1,12,4,8,1,1,1,4,1,6,5,1,6,1,1,1,1,1,0,0,0,0,0,0,21,10,3.3,give more bid ,"based on the membership fee, give the bid as less as possible",17,1,1,1010,1,0,1,5,6,0,6,8,1,2,4,5,5,7,6,5,7,4.5,0,2.8,3,1,-10,1,0,1.25,.375,1,0,1.25,.375,.8125,12,1,5,5,1,3.5,4.5,4,2,6,4,4.5166669,12,2,,4,2,6,4,12,2,4.359375,2.5220752,4.6746345,4.0441155,.96875,1.2840095,.6534906,3.390625,4.5,4.46875,0,2.8,3,,18,Scenario A,0
1,wmo3cmsz,0,37,36,Non_clairvoyant_dynamic,Results,2021-09-13 16:28:42.961932,1,62,igdrqddk,0,.1,Non_clairvoyant_dynamic,0,1,62,2,2,4,0,1,0,0,0,0,2,1,0,0,0,0,0,8,4,2,4,0,1,2,4,0,12,1,1,6,0,6,54,54,62,6.1999998,8,1,1,1,9,16.200001,0,0,1,0,4,4,4,0,1,0,4,1,0,8,8,1,4,0,1,4,4,0,4,1,1,8,0,8,1,1,1,4,1,5,4,1,2,0,0,0,0,1,1,1,1,1,1,1,22,7,2.28,Break even,Low bid,1,1,1,913,1,,1,0,0,2,2,2,0,0,4,4,2,2,4,2,2,4.5,0,2.8,3,0,0,0,0,1,1,0,0,1,1,1,4,1,0,6,1,3.5,4.5,4,2,6,4,4.5166669,12,2,,4,2,6,4,12,2,4.359375,2.5220752,4.6746345,4.0441155,.96875,1.2840095,.6534906,3.390625,4.5,4.46875,0,2.8,3,,17,Scenario A,0
4,pd9l0s73,0,37,36,Non_clairvoyant_dynamic,Results,2021-09-26 16:36:48.051127,1,58,5kbhy2vn,0,.1,Non_clairvoyant_dynamic,0,4,58,2,2,2,1,0,0,0,0,0,2,1,0,0,0,0,0,4,4,8,2,1,1,2,0,0,8,1,1,6,2,4,50,50,58,5.8000002,8,1,1,0,7,15.8,0,0,1,0,4,4,4,1,1,0,4,1,0,8,8,0,5,1,1,4,0,0,0,1,1,13,4,9,1,1,1,5,1,4,2,1,4,1,1,1,1,1,0,0,0,0,0,1,20,2,3.95,Random,"It depends on the chance to make more money. If I have the 1/10 chance to win 10 and 9/10 to win 8, I definitely would choose it. I have low risk to lose money and more likely to make ends meet. With the increase of proability of  earning more(16), I might choose to take a chance.",4,1,1,926,1,0,1,0,0,2,2,4,0,2,2,2,2,4,2,2,4,4.5,0,2.8,3,0,2,0,1,1,2,0,1,1,2,1.5,0,1,5,5,1,3.5,4.5,4,2,6,4,4.5166669,12,2,,4,2,6,4,12,2,4.359375,2.5220752,4.6746345,4.0441155,.96875,1.2840095,.6534906,3.390625,4.5,4.46875,0,2.8,3,,16,Scenario A,0
7,zfqkn9yf,0,37,36,Non_clairvoyant_dynamic,Results,2021-09-14 16:27:16.774785,1,57,bbp27rqb,0,.1,Non_clairvoyant_dynamic,0,7,57,2,2,2,1,0,0,0,0,0,4,0,1,0,0,0,0,4,8,4,3,1,1,2,0,2,7,1,1,7,2,5,50,52,57,5.6999998,5,1,1,1,9,15.7,0,0,1,0,4,4,6,0,0,1,6,0,1,12,12,0,5,1,0,0,2,1,3,1,1,9,4,5,1,1,1,6,1,5,3,1,4,1,1,1,0,0,0,0,0,0,0,1,25,10,3.96,,,7,1,1,914,1,,1,0,0,2,2,4,0,2,2,2,2,4,3,2,4,4.5,0,2.8,3,1,0,1,0,1.5,1,1,0,1.5,1,1.25,2,1,3,3,1,3.5,4.5,4,2,6,4,4.5166669,12,2,,4,2,6,4,12,2,4.359375,2.5220752,4.6746345,4.0441155,.96875,1.2840095,.6534906,3.390625,4.5,4.46875,0,2.8,3,,16,Scenario A,0
17,y5c8be8u,0,37,36,Non_clairvoyant_dynamic,Results,2021-09-13 16:41:36.784817,1,78,igdrqddk,0,.1,Non_clairvoyant_dynamic,0,17,78,2,2,4,0,1,0,0,0,0,16,0,0,0,1,0,0,8,32,4,3,0,1,2,4,14,28,1,1,5,0,5,54,68,78,7.8000002,10,1,1,1,2,17.799999,0,0,1,0,4,4,6,0,0,1,6,0,1,12,12,4,1,1,1,4,0,2,2,0,1,5,0,5,0,1,1,1,1,5,3,1,4,1,1,1,1,1,1,0,0,0,0,0,21,7,4,Just tried to pick the middle of the choices as well as bid the least amount,Just tried to pick the middle of the range and bid the least amount,17,1,1,913,1,,1,0,0,2,2,2,0,0,4,4,2,2,3,2,2,4.5,0,2.8,3,-1,-12,0,0,.75,.25,0,0,.75,.25,.5,18,1,6,6,1,3.5,4.5,4,2,6,4,4.5166669,12,2,,4,2,6,4,12,2,4.359375,2.5220752,4.6746345,4.0441155,.96875,1.2840095,.6534906,3.390625,4.5,4.46875,0,2.8,3,,18,Scenario A,0
16,jp62pz07,0,37,36,Non_clairvoyant_dynamic,Results,2021-10-10 16:34:59.787231,1,88,ihlggr6e,0,.1,Non_clairvoyant_dynamic,0,16,88,2,2,4,0,0,0,0,0,0,32,0,0,0,0,0,0,8,64,0,6,1,0,0,2,26,38,1,1,8,2,6,52,78,88,8.8000002,10,1,1,1,2,18.799999,0,0,1,0,4,4,4,0,1,0,4,1,0,8,8,0,5,1,0,0,0,-1,-1,1,1,9,4,5,1,1,1,5,1,6,6,1,14,1,1,0,0,1,1,0,1,0,0,0,21,4,2.9000001,"For the first period, i made my decision based upon the value i was given, and added 2.","For the second period, i made my decision based on the graph that showed the percentages for each chance. ",16,1,1,1010,1,0,1,6,6,0,6,8,1,2,4,4,4,6,6,4,6,4.5,0,2.8,3,2,-18,1,0,1.5,.4375,1,0,1.5,.4375,.96875,28,1,2,5,1,3.5,4.5,4,2,6,4,4.5166669,12,2,,4,2,6,4,12,2,4.359375,2.5220752,4.6746345,4.0441155,.96875,1.2840095,.6534906,3.390625,4.5,4.46875,0,2.8,3,,19,Scenario A,0
1,spyisqbw,0,37,36,Non_clairvoyant_dynamic,Results,2021-09-26 16:30:59.911612,1,66,5kbhy2vn,0,.1,Non_clairvoyant_dynamic,0,1,66,2,2,2,1,0,0,0,0,0,2,1,0,0,0,0,0,4,4,8,2,1,1,2,0,0,16,1,1,6,2,4,50,50,66,6.5999999,16,1,1,0,1,16.6,0,0,1,0,4,4,4,1,1,0,4,1,0,8,8,0,5,1,0,0,0,-1,-1,1,1,9,4,5,1,1,1,6,1,6,2,1,3,1,0,0,1,0,0,0,0,0,0,0,22,4,3,,"When the probability of earning points was equal between the two options, I chose the option with more points available.",1,1,1,926,1,0,1,0,0,2,2,4,0,2,2,2,2,4,2,2,4,4.5,0,2.8,3,0,1,0,1,1,1.5,0,1,1,1.5,1.25,0,1,1,2,1,3.5,4.5,4,2,6,4,4.5166669,12,2,,4,2,6,4,12,2,4.359375,2.5220752,4.6746345,4.0441155,.96875,1.2840095,.6534906,3.390625,4.5,4.46875,0,2.8,3,,17,Scenario A,0
2,y2ak7cnf,0,37,36,Non_clairvoyant_dynamic,Results,2021-10-10 16:29:42.755528,1,62,ihlggr6e,0,.1,Non_clairvoyant_dynamic,0,2,62,2,2,2,0,0,0,0,0,0,2,0,0,0,0,0,0,4,4,4,3,0,1,2,2,0,12,1,1,5,0,5,52,52,62,6.1999998,10,1,1,0,5,16.200001,0,0,1,0,4,4,2,1,0,0,6,0,1,4,12,2,3,1,0,2,0,1,1,0,1,5,0,5,0,1,1,3,1,6,3,1,3,1,0,0,0,1,1,1,1,1,1,1,22,3,,,,2,1,1,1010,1,1,1,0,0,2,2,2,0,0,2,2,2,2,3,2,2,4.5,0,2.8,3,1,1,1,1,1.5,1.5,1,1,1.5,1.5,1.5,2,1,1,7,1,3.5,4.5,4,2,6,4,4.5166669,12,2,,4,2,6,4,12,2,4.359375,2.5220752,4.6746345,4.0441155,.96875,1.2840095,.6534906,3.390625,4.5,4.46875,0,2.8,3,,17,Scenario A,0
2,vf293li7,0,37,36,Non_clairvoyant_dynamic,Results,2021-10-17 15:12:56.094367,1,57,hhumyvd9,0,.1,Non_clairvoyant_dynamic,0,2,57,2,2,2,0,0,0,0,0,0,4,0,0,0,0,0,0,4,8,4,3,0,0,4,2,-3,7,1,1,7,0,7,52,49,57,5.6999998,8,1,1,1,8,15.7,0,0,1,0,4,4,6,0,1,1,4,1,0,12,8,0,5,0,1,4,6,0,6,1,1,9,0,9,1,1,1,5,1,5,3,1,6,1,1,1,1,1,0,0,0,0,0,1,19,4,4,"In the first period, I did the mean of the two numbers because 50% of buyers were willing to pay four points, and 50% of buyers were willing to pay 6 points. If I was the seller, I would have done the math 4+6/2= 5. I believe that people who were willing to pay 6 points will be satisfied with the cost, and most people wiling to pay 4 points would have been okay with paying one more point. ","In the second period, I just saw that I was more likely to get eight points than five points in choices1-4 so I chose option A. On option 5 the payout was going to be more then 5 points if I chose option A, so I did not take the risk of choosing option B. Then for option 6-10 I had a high chance of earing the largest amount, 16 points so I went for it. ",18,1,1,1017,1,0,1,3,7,0,7,7,1,0,2,6,6,6,7,6,6,4.5,0,2.8,3,1,2,1,1,1.5,1.5,1,1,1.5,1.5,1.5,-1,1,5,5,1,3.5,4.5,4,2,6,4,4.5166669,12,2,,4,2,6,4,12,2,4.359375,2.5220752,4.6746345,4.0441155,.96875,1.2840095,.6534906,3.390625,4.5,4.46875,0,2.8,3,,16,Scenario A,0
8,jaq6oi6x,0,37,36,Non_clairvoyant_dynamic,Results,2021-09-13 16:38:51.260123,1,54,igdrqddk,0,.1,Non_clairvoyant_dynamic,0,8,54,2,2,2,1,0,0,0,0,0,2,1,0,0,0,0,0,4,4,2,4,1,0,2,0,-4,4,1,1,8,2,6,50,46,54,5.4000001,8,1,1,1,7,15.4,0,0,1,0,4,4,6,0,0,1,4,1,0,12,8,0,5,0,1,4,6,0,6,1,1,9,0,9,1,1,1,6,1,6,4,1,3,1,1,1,1,1,0,1,0,0,0,0,20,2,,,,8,1,1,913,1,,1,4,6,0,6,8,1,2,2,4,4,6,6,4,6,4.5,0,2.8,3,2,1,1,1,2,1.5,1,1,2,1.5,1.75,-4,1,5,6,1,3.5,4.5,4,2,6,4,4.5166669,12,2,,4,2,6,4,12,2,4.359375,2.5220752,4.6746345,4.0441155,.96875,1.2840095,.6534906,3.390625,4.5,4.46875,0,2.8,3,,16,Scenario A,0
3,0i7ewayj,0,37,36,Non_clairvoyant_dynamic,Results,2021-09-26 16:36:30.243542,1,56,5kbhy2vn,0,.1,Non_clairvoyant_dynamic,0,3,56,2,2,2,1,0,0,0,0,0,2,1,0,0,0,0,0,4,4,2,4,0,0,2,2,-4,6,1,1,6,0,6,52,48,56,5.5999999,8,1,1,1,8,15.6,0,0,1,0,4,4,2,1,0,0,6,0,1,4,12,3,2,1,0,3,0,1,1,0,1,5,0,5,0,1,1,2,1,12,4,1,2,0,0,0,1,1,1,1,1,1,1,0,20,7,3.8,"In the first period, I considered that I am likely to get the item with the highest bid so I bid the highest I could.",I made the decision by assuming that paying the membership fee would lead to a greater reward in the end. ,3,1,1,926,1,0,1,4,6,0,6,6,1,0,2,4,4,4,6,4,4,4.5,0,2.8,3,2,0,1,0,2,1,1,0,2,1,1.5,-2,1,0,7,1,3.5,4.5,4,2,6,4,4.5166669,12,2,,4,2,6,4,12,2,4.359375,2.5220752,4.6746345,4.0441155,.96875,1.2840095,.6534906,3.390625,4.5,4.46875,0,2.8,3,,16,Scenario A,0
20,mvp8k745,0,37,36,Non_clairvoyant_dynamic,Results,2021-09-13 16:42:30.957220,1,58,igdrqddk,0,.1,Non_clairvoyant_dynamic,0,20,58,2,2,4,0,1,0,0,0,0,2,1,0,0,0,0,0,8,4,2,4,0,0,2,4,-4,8,1,1,6,0,6,54,50,58,5.8000002,8,1,1,1,7,15.8,0,0,1,0,4,4,6,0,0,1,4,1,0,12,8,0,5,0,0,0,6,-1,5,1,1,5,0,5,1,1,1,5,1,4,4,1,2,1,1,1,1,1,0,0,0,0,0,1,20,3,3.2,Don't bid more than the value of the item. You could pay more than the item is worth.,Pay the fee. Hope for a higher value. got 2 so didnt want to bid more than 2. Ended up losing points,20,1,1,913,1,,1,4,6,0,6,6,1,0,4,6,6,6,6,6,6,4.5,0,2.8,3,0,0,0,0,1,1,0,0,1,1,1,0,1,5,5,1,3.5,4.5,4,2,6,4,4.5166669,12,2,,4,2,6,4,12,2,4.359375,2.5220752,4.6746345,4.0441155,.96875,1.2840095,.6534906,3.390625,4.5,4.46875,0,2.8,3,,16,Scenario A,0
23,tlli1uzw,0,37,36,Non_clairvoyant_dynamic,Results,2021-09-14 16:29:45.755231,1,72,bbp27rqb,0,.1,Non_clairvoyant_dynamic,0,23,72,2,2,2,1,0,0,0,0,0,16,0,0,0,1,0,0,4,32,16,1,1,1,2,0,14,22,0,1,3,0,3,50,64,72,7.1999998,8,0,1,0,6,17.200001,0,0,1,0,4,4,2,1,0,0,6,0,1,4,12,3,2,1,1,4,0,2,2,0,1,6,0,6,0,1,1,2,1,8,1,1,15,1,1,1,1,1,1,0,0,0,0,1,21,5,3.8800001,Only bid the (worth of the item to you - 1) to ensure that at minimum you make 1 point of profit.,Only bid (the worth of the item to you - entry fee - 1) to ensure that at minimum you will make 1 point of profit.,23,1,1,914,1,,1,0,0,2,2,2,0,2,2,2,2,4,1,2,2,4.5,0,2.8,3,-1,-1,0,0,.5,.9375,0,0,.5,.9375,.71875,14,1,6,6,1,3.5,4.5,4,2,6,4,4.5166669,12,2,,4,2,6,4,12,2,4.359375,2.5220752,4.6746345,4.0441155,.96875,1.2840095,.6534906,3.390625,4.5,4.46875,0,2.8,3,,18,Scenario A,0
13,x3sk601e,0,37,36,Non_clairvoyant_dynamic,Results,2021-09-13 16:38:05.467104,1,59,igdrqddk,0,.1,Non_clairvoyant_dynamic,0,13,59,2,2,2,1,0,0,0,0,0,8,0,0,1,0,0,0,4,16,2,4,0,0,2,2,2,9,1,1,6,0,6,52,54,59,5.9000001,5,1,1,1,10,15.9,0,0,1,0,4,4,4,0,1,0,4,1,0,8,8,0,5,0,0,0,4,-1,3,1,1,5,0,5,1,1,1,6,1,8,4,1,9,0,0,0,0,0,0,0,0,0,0,1,21,3,3.4000001,the highest bid,above average points,7,1,1,913,1,,1,4,6,0,6,6,1,0,2,4,4,4,6,4,4,4.5,0,2.8,3,2,1,1,1,2,1.125,1,1,2,1.125,1.5625,4,1,0,0,1,3.5,4.5,4,2,6,4,4.5166669,12,2,,4,2,6,4,12,2,4.359375,2.5220752,4.6746345,4.0441155,.96875,1.2840095,.6534906,3.390625,4.5,4.46875,0,2.8,3,,16,Scenario A,0
4,5yy7pkd5,0,37,36,Non_clairvoyant_dynamic,Results,2021-10-17 15:13:12.334413,1,59,hhumyvd9,0,.1,Non_clairvoyant_dynamic,0,4,59,2,2,4,0,0,0,0,0,0,4,0,0,0,0,0,0,8,8,2,4,1,1,2,2,2,9,1,1,8,2,6,52,54,59,5.9000001,5,1,1,1,10,15.9,0,0,1,0,4,4,6,1,0,1,4,1,0,12,8,0,5,0,1,4,6,0,6,1,1,9,0,9,1,1,1,6,1,4,4,1,3,1,1,1,1,0,0,0,0,0,0,0,20,1,3.4000001,"Since the options were 50/50, I went with the higher number hoping for a larger payout, while still trying to keep a safe choice and minimizing  risks for losses.","I went with the 25% because while it was more risky than going for the 50% option, it was a higher profit and 1/4 odds is still secure.",20,1,1,1017,1,0,1,0,0,2,2,4,0,2,4,4,2,4,4,2,4,4.5,0,2.8,3,0,-1,0,0,1,.75,0,0,1,.75,.875,4,1,4,4,1,3.5,4.5,4,2,6,4,4.5166669,12,2,,4,2,6,4,12,2,4.359375,2.5220752,4.6746345,4.0441155,.96875,1.2840095,.6534906,3.390625,4.5,4.46875,0,2.8,3,,16,Scenario A,0
2,xjc4w6yi,0,37,36,Non_clairvoyant_dynamic,Results,2021-09-13 16:29:18.101488,1,60,igdrqddk,0,.1,Non_clairvoyant_dynamic,0,2,60,2,2,4,0,1,0,0,0,0,4,0,1,0,0,0,0,8,8,0,6,0,0,0,4,-2,10,1,1,6,0,6,54,52,60,6,8,1,1,1,10,16,0,0,1,0,4,4,6,0,0,1,4,1,0,12,8,0,5,1,1,4,2,0,2,1,1,13,4,9,1,1,1,6,1,6,7,1,6,1,1,1,1,1,1,1,0,0,0,0,20,9,2.5999999,"I simply bid higher than my value, to ensure I had a chance. The bigger the true value the higher the bid","I simply bid higher than my value, to ensure I had a chance. The bigger the true value the higher the bid",2,1,1,913,1,,1,6,6,0,6,6,1,0,4,4,4,4,6,4,4,4.5,0,2.8,3,3,2,1,1,1.75,1.5,1,1,1.75,1.5,1.625,2,1,7,7,1,3.5,4.5,4,2,6,4,4.5166669,12,2,,4,2,6,4,12,2,4.359375,2.5220752,4.6746345,4.0441155,.96875,1.2840095,.6534906,3.390625,4.5,4.46875,0,2.8,3,,17,Scenario A,0
10,s3esqf9z,0,37,36,Non_clairvoyant_dynamic,Results,2021-09-26 16:38:32.256530,1,60,5kbhy2vn,0,.1,Non_clairvoyant_dynamic,0,10,60,2,2,4,0,1,0,0,0,0,4,0,1,0,0,0,0,8,8,2,4,0,0,2,4,-2,10,1,1,6,0,6,54,52,60,6,8,1,1,1,10,16,0,0,1,0,4,4,4,0,1,0,4,1,0,8,8,1,4,0,1,4,4,0,4,1,1,8,0,8,1,1,1,4,1,6,4,1,2,0,1,1,1,1,0,0,0,0,0,0,19,2,3.8,I picked the higher percentage as my final decision.,I tried to even the options out by putting one half as option 1 and the other as option 2.,9,1,1,926,1,0,1,4,6,0,6,6,1,0,4,6,6,6,6,6,6,4.5,0,2.8,3,0,-2,0,0,1,.5,0,0,1,.5,.75,2,1,4,4,1,3.5,4.5,4,2,6,4,4.5166669,12,2,,4,2,6,4,12,2,4.359375,2.5220752,4.6746345,4.0441155,.96875,1.2840095,.6534906,3.390625,4.5,4.46875,0,2.8,3,,17,Scenario A,0
19,bi6tcpnn,0,37,36,Non_clairvoyant_dynamic,Results,2021-09-14 16:28:56.167028,1,58,bbp27rqb,0,.1,Non_clairvoyant_dynamic,0,19,58,2,2,4,0,1,0,0,0,0,2,1,0,0,0,0,0,8,4,8,2,1,0,8,2,-2,8,1,0,4,2,2,52,50,58,5.8000002,8,1,1,0,6,15.8,0,0,1,0,4,4,6,0,0,1,4,1,0,12,8,0,5,1,1,4,2,0,2,1,1,13,4,9,1,1,1,7,1,5,2,1,2,1,1,1,1,1,0,0,0,0,0,0,30,3,3.9000001,,,19,1,1,914,1,,1,2,2,0,2,4,0,2,4,4,4,6,2,4,6,4.5,0,2.8,3,-2,0,0,0,.5,1,0,0,.5,1,.75,0,1,5,5,1,3.5,4.5,4,2,6,4,4.5166669,12,2,,4,2,6,4,12,2,4.359375,2.5220752,4.6746345,4.0441155,.96875,1.2840095,.6534906,3.390625,4.5,4.46875,0,2.8,3,,16,Scenario A,0
10,0nn4wr8s,0,37,36,Non_clairvoyant_dynamic,Results,2021-09-13 16:33:03.535544,1,62,igdrqddk,0,.1,Non_clairvoyant_dynamic,0,10,62,2,2,2,1,0,0,0,0,0,4,0,1,0,0,0,0,4,8,16,1,0,1,2,2,2,12,1,1,3,0,3,52,54,62,6.1999998,8,0,1,0,10,16.200001,0,0,1,0,4,4,6,0,0,1,4,1,0,12,8,4,1,1,0,4,0,-1,-1,0,1,5,0,5,0,1,1,1,1,6,1,1,2,1,1,1,1,1,1,0,1,0,0,1,19,3,3.79,using the distribution table I sold for whatever the most way that was lower than my true value so I could take less risk keep a profit,I bought the fee so I ended up increasing my bid using the profit from the first round,10,1,1,913,1,,1,0,0,2,2,2,0,0,2,2,2,2,1,2,2,4.5,0,2.8,3,-1,-2,0,0,.5,.5,0,0,.5,.5,.5,4,1,6,7,1,3.5,4.5,4,2,6,4,4.5166669,12,2,,4,2,6,4,12,2,4.359375,2.5220752,4.6746345,4.0441155,.96875,1.2840095,.6534906,3.390625,4.5,4.46875,0,2.8,3,,17,Scenario A,0
9,umt6sgy3,0,37,36,Non_clairvoyant_dynamic,Results,2021-09-26 16:38:05.740840,1,55,5kbhy2vn,0,.1,Non_clairvoyant_dynamic,0,9,55,2,2,4,0,1,0,0,0,0,4,0,1,0,0,0,0,8,8,0,6,1,0,0,2,-2,5,1,1,8,2,6,52,50,55,5.5,5,1,1,1,8,15.5,0,0,1,0,4,4,6,0,0,1,4,1,0,12,8,0,5,1,0,0,2,-1,1,1,1,9,4,5,1,1,1,12,1,8,8,1,4,0,0,0,0,0,0,0,0,0,0,1,25,5,,,,8,1,1,926,1,1,1,6,6,0,6,8,1,2,4,4,4,6,6,4,6,4.5,0,2.8,3,4,0,1,0,2,1,1,0,2,1,1.5,0,1,0,0,1,3.5,4.5,4,2,6,4,4.5166669,12,2,,4,2,6,4,12,2,4.359375,2.5220752,4.6746345,4.0441155,.96875,1.2840095,.6534906,3.390625,4.5,4.46875,0,2.8,3,,16,Scenario A,0
6,q8uaji22,0,37,36,Non_clairvoyant_dynamic,Results,2021-09-26 16:37:24.561358,1,57,5kbhy2vn,0,.1,Non_clairvoyant_dynamic,0,6,57,2,2,2,1,0,0,0,0,0,2,1,0,0,0,0,0,4,4,8,2,0,1,2,2,0,7,1,1,4,0,4,52,52,57,5.6999998,5,1,1,0,8,15.7,0,0,1,0,4,4,2,1,0,1,4,1,0,4,8,1,4,1,1,4,-2,0,-2,1,1,12,4,8,1,1,1,4,1,4,2,1,2,1,1,1,1,0,0,0,0,0,0,0,18,7,,Max out wager to amount I had to start,"Max out wagers so spend all in betting, but don't go over what I had",6,1,1,926,1,0,1,0,0,2,2,2,0,0,2,2,2,2,2,2,2,4.5,0,2.8,3,0,0,0,0,1,1,0,0,1,1,1,2,1,4,4,1,3.5,4.5,4,2,6,4,4.5166669,12,2,,4,2,6,4,12,2,4.359375,2.5220752,4.6746345,4.0441155,.96875,1.2840095,.6534906,3.390625,4.5,4.46875,0,2.8,3,,16,Scenario A,0
4,8n7f4x3u,0,37,36,Non_clairvoyant_dynamic,Results,2021-10-10 16:29:57.265999,1,51,ihlggr6e,0,.1,Non_clairvoyant_dynamic,0,4,51,2,2,2,0,0,0,0,0,0,2,0,0,0,0,0,0,4,4,2,4,1,0,2,0,-4,1,1,1,8,2,6,50,46,51,5.0999999,5,1,1,1,8,15.1,0,0,1,0,4,4,6,1,0,1,4,1,0,12,8,3,2,1,0,3,0,-1,-1,0,1,5,0,5,0,1,1,2,1,7,4,1,2,1,1,1,0,0,0,0,0,0,0,1,24,3,,,,4,1,1,1010,1,1,1,4,6,0,6,8,1,2,2,4,4,6,6,4,6,4.5,0,2.8,3,2,0,1,0,2,1,1,0,2,1,1.5,-4,1,3,3,1,3.5,4.5,4,2,6,4,4.5166669,12,2,,4,2,6,4,12,2,4.359375,2.5220752,4.6746345,4.0441155,.96875,1.2840095,.6534906,3.390625,4.5,4.46875,0,2.8,3,,16,Scenario A,0
16,ye38gaaa,0,37,36,Non_clairvoyant_dynamic,Results,2021-09-14 16:28:20.759210,1,55,bbp27rqb,0,.1,Non_clairvoyant_dynamic,0,16,55,2,2,4,0,1,0,0,0,0,2,1,0,0,0,0,0,8,4,2,4,0,0,2,4,-4,5,1,1,6,0,6,54,50,55,5.5,5,1,1,1,9,15.5,0,0,1,0,4,4,6,0,0,1,6,0,1,12,12,0,5,1,0,0,2,1,3,1,1,9,4,5,1,1,1,6,1,6,4,1,3,1,1,1,1,0,0,0,0,0,0,0,22,10,3.98,"I set the bid according to my value, and waited for the decision. ","I entered, hoping my value would be higher than the membership fee (which was not the case), and set a bid that was 1 above my value, as my value was very low. ",16,1,1,914,1,,1,4,6,0,6,6,1,0,4,6,6,6,6,6,6,4.5,0,2.8,3,0,1,0,1,1,1.5,0,1,1,1.5,1.25,0,1,4,4,1,3.5,4.5,4,2,6,4,4.5166669,12,2,,4,2,6,4,12,2,4.359375,2.5220752,4.6746345,4.0441155,.96875,1.2840095,.6534906,3.390625,4.5,4.46875,0,2.8,3,,16,Scenario A,0
20,m67edmvk,0,37,36,Non_clairvoyant_dynamic,Results,2021-09-14 16:29:03.406803,1,55,bbp27rqb,0,.1,Non_clairvoyant_dynamic,0,20,55,2,2,4,0,1,0,0,0,0,4,0,1,0,0,0,0,8,8,1,5,1,0,1,2,-2,5,1,1,8,2,6,52,50,55,5.5,5,1,1,1,6,15.5,0,0,1,0,4,4,4,0,1,0,6,0,1,8,12,0,5,1,0,0,0,1,1,1,1,9,4,5,1,1,1,5,1,7,5,1,6,1,1,1,0,0,0,0,0,0,0,0,19,3,,,,20,1,1,914,1,,1,5,6,0,6,8,1,2,4,5,5,7,6,5,7,4.5,0,2.8,3,1,2,1,1,1.25,1.5,1,1,1.25,1.5,1.375,0,1,3,3,1,3.5,4.5,4,2,6,4,4.5166669,12,2,,4,2,6,4,12,2,4.359375,2.5220752,4.6746345,4.0441155,.96875,1.2840095,.6534906,3.390625,4.5,4.46875,0,2.8,3,,16,Scenario A,0
2,lgqm9rk6,0,37,36,Non_clairvoyant_dynamic,Results,2021-09-26 16:36:04.805403,1,55,5kbhy2vn,0,.1,Non_clairvoyant_dynamic,0,2,55,2,2,2,1,0,0,0,0,0,2,1,0,0,0,0,0,4,4,8,2,0,0,8,2,-2,5,1,0,2,0,2,52,50,55,5.5,5,1,1,0,9,15.5,0,0,1,0,4,4,2,1,0,0,4,1,0,4,8,3,2,0,1,4,2,0,2,1,0,2,0,2,0,0,0,2,1,2,2,1,4,0,0,0,1,0,0,1,1,0,0,1,22,5,,,,2,1,1,926,1,1,1,2,2,0,2,2,0,0,2,2,2,2,2,2,2,4.5,0,2.8,3,0,2,0,1,1,2,0,1,1,2,1.5,0,1,1,3,1,3.5,4.5,4,2,6,4,4.5166669,12,2,,4,2,6,4,12,2,4.359375,2.5220752,4.6746345,4.0441155,.96875,1.2840095,.6534906,3.390625,4.5,4.46875,0,2.8,3,,16,Scenario A,0
10,qbo5blbs,0,37,36,Non_clairvoyant_dynamic,Results,2021-10-10 16:32:03.876949,1,57,ihlggr6e,0,.1,Non_clairvoyant_dynamic,0,10,57,2,2,4,0,0,0,0,0,0,2,0,0,0,0,0,0,8,4,0,6,1,0,0,2,0,7,1,0,2,2,0,52,52,57,5.6999998,5,1,0,0,9,15.7,0,0,1,0,4,4,6,1,0,1,6,0,1,12,12,0,5,0,0,0,6,1,7,1,1,5,0,5,1,1,1,7,1,5,7,0,,1,1,1,1,0,1,1,0,0,1,1,20,10,3,Based on the probability of the first postage on the scores ,See problem #6 ,10,1,1,1010,1,0,1,0,0,0,0,2,1,2,4,4,4,6,6,6,8,4.5,0,2.8,3,3,,1,1,1.75,,1,1,1.75,,3,2,1,4,7,1,3.5,4.5,,,,,,,,,4,2,6,4,12,2,4.359375,2.5220752,4.6746345,4.0441155,.96875,1.2840095,.6534906,3.390625,4.5,4.46875,0,2.8,3,,16,Scenario A,0
10,hydm6pr7,0,37,36,Non_clairvoyant_dynamic,Results,2021-09-14 16:27:34.062783,1,58,bbp27rqb,0,.1,Non_clairvoyant_dynamic,0,10,58,2,2,2,1,0,0,0,0,0,2,1,0,0,0,0,0,4,4,8,2,0,0,8,2,-2,8,1,0,2,0,2,52,50,58,5.8000002,8,1,1,0,6,15.8,0,0,1,0,4,4,6,0,0,1,6,0,1,12,12,0,5,0,1,4,6,2,8,1,1,9,0,9,1,1,1,7,1,7,2,1,3,1,1,1,1,1,0,0,0,0,0,1,20,7,,,,10,1,1,914,1,,1,2,2,0,2,2,0,0,2,2,2,2,2,2,2,4.5,0,2.8,3,0,1,0,1,1,1.5,0,1,1,1.5,1.25,0,1,5,5,1,3.5,4.5,4,2,6,4,4.5166669,12,2,,4,2,6,4,12,2,4.359375,2.5220752,4.6746345,4.0441155,.96875,1.2840095,.6534906,3.390625,4.5,4.46875,0,2.8,3,,16,Scenario A,0
3,a31dfmpj,0,37,36,Non_clairvoyant_dynamic,Results,2021-10-10 16:29:48.964107,1,57,ihlggr6e,0,.1,Non_clairvoyant_dynamic,0,3,57,2,2,2,0,0,0,0,0,0,2,0,0,0,0,0,0,4,4,8,2,0,1,2,2,0,7,1,1,4,0,4,52,52,57,5.6999998,5,1,1,0,10,15.7,0,0,1,0,4,4,6,0,0,1,6,0,1,12,12,1,4,1,1,4,2,2,4,1,1,12,4,8,1,1,1,4,1,6,2,1,2,1,1,1,0,0,0,0,0,0,0,1,26,5,,,,3,1,1,1010,1,1,1,0,0,2,2,2,0,0,2,2,2,2,2,2,2,4.5,0,2.8,3,0,0,0,0,1,1,0,0,1,1,1,2,1,3,3,1,3.5,4.5,4,2,6,4,4.5166669,12,2,,4,2,6,4,12,2,4.359375,2.5220752,4.6746345,4.0441155,.96875,1.2840095,.6534906,3.390625,4.5,4.46875,0,2.8,3,,16,Scenario A,0
7,suu02eql,0,37,36,Non_clairvoyant_dynamic,Results,2021-10-10 16:31:43.791153,1,64,ihlggr6e,0,.1,Non_clairvoyant_dynamic,0,7,64,2,2,2,0,0,0,0,0,0,8,0,0,0,0,0,0,4,16,2,4,1,1,2,0,6,14,1,1,8,2,6,50,56,64,6.4000001,8,1,1,1,7,16.4,0,0,1,0,4,4,4,0,1,0,6,0,1,8,12,1,4,1,0,1,0,1,1,1,1,9,4,5,1,1,1,4,1,10,4,1,14,1,0,1,1,1,0,0,0,0,1,0,23,5,4,Based on the examples,Based on Examples,7,1,1,1010,1,1,1,0,0,2,2,4,0,2,2,2,2,4,4,2,4,4.5,0,2.8,3,2,6,1,1,2,1.75,1,1,2,1.75,1.875,6,1,1,5,1,3.5,4.5,4,2,6,4,4.5166669,12,2,,4,2,6,4,12,2,4.359375,2.5220752,4.6746345,4.0441155,.96875,1.2840095,.6534906,3.390625,4.5,4.46875,0,2.8,3,,17,Scenario A,0
13,xyz13nao,0,37,36,Non_clairvoyant_dynamic,Results,2021-10-10 16:32:28.254788,1,59,ihlggr6e,0,.1,Non_clairvoyant_dynamic,0,13,59,2,2,4,0,0,0,0,0,0,4,0,0,0,0,0,0,8,8,0,6,1,1,2,2,2,9,1,1,10,2,8,52,54,59,5.9000001,5,1,1,1,7,15.9,0,0,1,0,4,4,4,0,1,0,6,0,1,8,12,1,4,1,0,1,0,1,1,1,1,9,4,5,1,1,1,4,1,7,6,1,6,1,1,0,0,0,0,0,0,0,0,1,18,6,,,,13,1,1,1010,1,0,1,0,0,2,2,4,0,2,4,4,2,4,6,2,4,4.5,0,2.8,3,2,2,1,1,1.5,1.5,1,1,1.5,1.5,1.5,4,1,2,2,1,3.5,4.5,4,2,6,4,4.5166669,12,2,,4,2,6,4,12,2,4.359375,2.5220752,4.6746345,4.0441155,.96875,1.2840095,.6534906,3.390625,4.5,4.46875,0,2.8,3,,16,Scenario A,0
12,0bwpoz6x,0,37,36,Non_clairvoyant_dynamic,Results,2021-10-10 16:32:22.434582,1,56,ihlggr6e,0,.1,Non_clairvoyant_dynamic,0,12,56,2,2,4,0,0,0,0,0,0,2,0,0,0,0,0,0,8,4,2,4,1,0,2,2,-4,6,1,1,8,2,6,52,48,56,5.5999999,8,1,1,1,9,15.6,0,0,1,0,4,4,4,1,1,0,4,1,0,8,8,1,4,0,1,4,4,0,4,1,1,8,0,8,1,1,1,4,1,6,4,1,4,1,1,1,1,1,0,0,0,0,0,1,18,1,,,,12,1,1,1010,1,0,1,4,6,0,6,8,1,2,4,6,6,8,6,6,8,4.5,0,2.8,3,0,2,0,1,1,2,0,1,1,2,1.5,-2,1,5,5,1,3.5,4.5,4,2,6,4,4.5166669,12,2,,4,2,6,4,12,2,4.359375,2.5220752,4.6746345,4.0441155,.96875,1.2840095,.6534906,3.390625,4.5,4.46875,0,2.8,3,,16,Scenario A,0
8,s0jp77r1,0,37,36,Non_clairvoyant_dynamic,Results,2021-10-10 16:31:54.242256,1,67,ihlggr6e,0,.1,Non_clairvoyant_dynamic,0,8,67,2,2,2,0,0,0,0,0,0,16,0,0,0,0,0,0,4,32,2,4,0,0,2,2,10,17,1,1,6,0,6,52,62,67,6.6999998,5,1,1,1,7,16.700001,0,0,1,0,4,4,2,1,0,1,6,0,1,4,12,1,4,1,1,4,-2,2,0,1,1,12,4,8,1,1,1,4,1,7,4,1,32,1,1,1,1,0,0,0,0,0,0,0,21,3,4,klasdjf,kjsdklfj,8,1,1,1010,1,1,1,4,6,0,6,6,1,0,2,4,4,4,6,4,4,4.5,0,2.8,3,2,16,1,1,2,2,1,1,2,2,2,12,1,4,4,1,3.5,4.5,4,2,6,4,4.5166669,12,2,,4,2,6,4,12,2,4.359375,2.5220752,4.6746345,4.0441155,.96875,1.2840095,.6534906,3.390625,4.5,4.46875,0,2.8,3,,17,Scenario A,0
6,dqxrigk5,0,37,36,Non_clairvoyant_dynamic,Results,2021-10-10 16:31:37.908220,1,63,ihlggr6e,0,.1,Non_clairvoyant_dynamic,0,6,63,2,2,2,0,0,0,0,0,0,4,0,0,0,0,0,0,4,8,4,3,1,0,4,0,-3,13,1,1,9,2,7,50,47,63,6.3000002,16,1,1,1,1,16.299999,0,0,1,0,4,4,4,0,1,1,4,1,0,8,8,3,2,1,0,3,0,-1,-1,0,1,5,0,5,0,1,1,2,1,6,3,1,4,1,1,1,0,0,0,0,0,0,0,0,22,5,,,,6,1,1,1010,1,1,1,3,7,0,7,9,1,2,2,6,6,8,7,6,8,4.5,0,2.8,3,1,0,1,0,1.5,1,1,0,1.5,1,1.25,-3,1,3,3,1,3.5,4.5,4,2,6,4,4.5166669,12,2,,4,2,6,4,12,2,4.359375,2.5220752,4.6746345,4.0441155,.96875,1.2840095,.6534906,3.390625,4.5,4.46875,0,2.8,3,,17,Scenario A,0
1,p3nvzeon,0,37,36,Non_clairvoyant_dynamic,Results,2021-10-10 16:29:32.438318,1,60,ihlggr6e,0,.1,Non_clairvoyant_dynamic,0,1,60,2,2,2,0,0,0,0,0,0,2,0,0,0,0,0,0,4,4,4,3,0,1,2,2,0,10,1,1,5,0,5,52,52,60,6,8,1,1,0,9,16,0,0,1,0,4,4,6,1,0,1,6,0,1,12,12,0,5,1,0,0,2,0,2,1,,4,4,0,1,0,0,6,0,,3,1,2,1,1,0,0,1,0,0,0,1,0,0,18,9,3.5,By seeing how likely id get the product.,by bidding higher.,1,1,1,1010,1,0,1,0,0,2,2,2,0,0,2,2,2,2,3,2,2,4.5,0,2.8,3,1,0,1,0,1.5,1,1,0,1.5,1,1.25,2,1,2,4,1,3.5,4.5,4,2,6,4,4.5166669,12,2,,4,2,6,4,12,2,4.359375,2.5220752,4.6746345,4.0441155,.96875,1.2840095,.6534906,3.390625,4.5,4.46875,0,2.8,3,,17,Scenario A,0
16,it84a3pj,0,37,36,Non_clairvoyant_dynamic,Results,2021-09-13 16:41:26.209125,1,57,igdrqddk,0,.1,Non_clairvoyant_dynamic,0,16,57,2,2,2,1,0,0,0,0,0,4,0,1,0,0,0,0,4,8,2,4,1,1,2,0,2,7,1,1,8,2,6,50,52,57,5.6999998,5,1,1,1,10,15.7,0,0,1,0,4,4,6,0,0,1,4,1,0,12,8,0,5,1,0,0,2,-1,1,1,1,9,4,5,1,1,1,5,1,4,4,1,6,1,1,0,0,0,1,1,0,0,0,0,20,8,3.8499999,If I would gain more,If I would gain more,16,1,1,913,1,,1,0,0,2,2,4,0,2,2,2,2,4,4,2,4,4.5,0,2.8,3,2,2,1,1,2,1.5,1,1,2,1.5,1.75,2,1,2,4,1,3.5,4.5,4,2,6,4,4.5166669,12,2,,4,2,6,4,12,2,4.359375,2.5220752,4.6746345,4.0441155,.96875,1.2840095,.6534906,3.390625,4.5,4.46875,0,2.8,3,,16,Scenario A,0
13,i8oc223e,0,37,36,Non_clairvoyant_dynamic,Results,2021-09-14 16:27:57.254444,1,55,bbp27rqb,0,.1,Non_clairvoyant_dynamic,0,13,55,2,2,4,0,1,0,0,0,0,2,1,0,0,0,0,0,8,4,2,4,0,0,2,4,-4,5,1,1,6,0,6,54,50,55,5.5,5,1,1,1,9,15.5,0,0,1,0,4,4,2,1,0,0,6,0,1,4,12,1,4,1,1,4,-2,2,0,1,1,12,4,8,1,1,1,4,1,8,4,1,4,1,1,1,0,0,0,0,0,0,0,0,36,1,,,,13,1,1,914,1,,1,4,6,0,6,6,1,0,4,6,6,6,6,6,6,4.5,0,2.8,3,0,2,0,1,1,2,0,1,1,2,1.5,0,1,3,3,1,3.5,4.5,4,2,6,4,4.5166669,12,2,,4,2,6,4,12,2,4.359375,2.5220752,4.6746345,4.0441155,.96875,1.2840095,.6534906,3.390625,4.5,4.46875,0,2.8,3,,16,Scenario A,0
8,pncunl05,0,37,36,Non_clairvoyant_dynamic,Results,2021-09-26 16:37:44.848920,1,70,5kbhy2vn,0,.1,Non_clairvoyant_dynamic,0,8,70,2,2,4,0,1,0,0,0,0,2,1,0,0,0,0,0,8,4,2,4,0,1,2,4,0,20,1,1,6,0,6,54,54,70,7,16,1,1,1,2,17,0,0,1,0,4,4,2,1,0,0,4,1,0,4,8,2,3,0,1,4,2,0,2,1,1,7,0,7,0,1,1,3,1,6,4,1,2,1,1,1,1,0,0,0,0,0,0,1,23,5,,,,7,1,1,926,1,1,1,0,0,2,2,2,0,0,4,4,2,2,4,2,2,4.5,0,2.8,3,0,0,0,0,1,1,0,0,1,1,1,4,1,4,4,1,3.5,4.5,4,2,6,4,4.5166669,12,2,,4,2,6,4,12,2,4.359375,2.5220752,4.6746345,4.0441155,.96875,1.2840095,.6534906,3.390625,4.5,4.46875,0,2.8,3,,18,Scenario A,0
9,oem01obr,0,37,36,Non_clairvoyant_dynamic,Results,2021-10-10 16:31:58.752512,1,57,ihlggr6e,0,.1,Non_clairvoyant_dynamic,0,9,57,2,2,4,0,0,0,0,0,0,2,0,0,0,0,0,0,8,4,2,4,1,1,2,2,0,7,1,1,8,2,6,52,52,57,5.6999998,5,1,1,1,10,15.7,0,0,1,0,4,4,6,0,0,1,6,0,1,12,12,0,5,1,0,0,2,1,3,1,1,9,4,5,1,1,1,6,1,5,4,1,3,0,1,0,0,0,0,0,0,0,0,1,24,5,,,,9,1,1,1010,1,1,1,0,0,2,2,4,0,2,4,4,2,4,4,2,4,4.5,0,2.8,3,0,1,0,1,1,1.5,0,1,1,1.5,1.25,2,1,1,1,1,3.5,4.5,4,2,6,4,4.5166669,12,2,,4,2,6,4,12,2,4.359375,2.5220752,4.6746345,4.0441155,.96875,1.2840095,.6534906,3.390625,4.5,4.46875,0,2.8,3,,16,Scenario A,0
15,qkq2lpoa,0,37,36,Non_clairvoyant_dynamic,Results,2021-10-10 16:34:54.602769,1,70,ihlggr6e,0,.1,Non_clairvoyant_dynamic,0,15,70,2,2,4,0,0,0,0,0,0,8,0,0,0,0,0,0,8,16,2,4,0,1,2,4,6,20,1,1,6,0,6,54,60,70,7,10,1,1,1,2,17,0,0,1,0,4,4,4,1,1,0,6,0,1,8,12,0,5,1,1,4,0,2,2,1,1,13,4,9,1,1,1,7,1,6,4,1,6,1,1,0,1,1,0,1,0,0,1,1,22,3,,,,15,1,1,1010,1,1,1,0,0,2,2,2,0,0,4,4,2,2,4,2,2,4.5,0,2.8,3,0,-2,0,0,1,.75,0,0,1,.75,.875,10,1,2,6,1,3.5,4.5,4,2,6,4,4.5166669,12,2,,4,2,6,4,12,2,4.359375,2.5220752,4.6746345,4.0441155,.96875,1.2840095,.6534906,3.390625,4.5,4.46875,0,2.8,3,,18,Scenario A,0
3,gdnsy5w7,0,37,36,Non_clairvoyant_dynamic,Results,2021-09-14 16:26:45.482924,1,55,bbp27rqb,0,.1,Non_clairvoyant_dynamic,0,3,55,2,2,2,1,0,0,0,0,0,2,1,0,0,0,0,0,4,4,4,3,1,1,2,0,0,5,1,1,7,2,5,50,50,55,5.5,5,1,1,1,9,15.5,0,0,1,0,4,4,6,0,0,1,4,1,0,12,8,0,5,0,0,0,6,-1,5,1,1,5,0,5,1,1,1,12,1,8,3,1,4,0,1,1,0,0,1,0,0,1,0,0,24,5,3.4000001,I looked  at the bid offers,I looked at the membership offers,3,1,1,914,1,,1,0,0,2,2,4,0,2,2,2,2,4,3,2,4,4.5,0,2.8,3,1,2,1,1,1.5,2,1,1,1.5,2,1.75,0,1,2,4,1,3.5,4.5,4,2,6,4,4.5166669,12,2,,4,2,6,4,12,2,4.359375,2.5220752,4.6746345,4.0441155,.96875,1.2840095,.6534906,3.390625,4.5,4.46875,0,2.8,3,,16,Scenario A,0
18,pry2bq28,0,37,36,Non_clairvoyant_dynamic,Results,2021-09-14 16:28:51.042147,1,60,bbp27rqb,0,.1,Non_clairvoyant_dynamic,0,18,60,2,2,2,1,0,0,0,0,0,4,0,1,0,0,0,0,4,8,8,2,0,0,8,2,-2,10,1,0,2,0,2,52,50,60,6,10,1,1,0,5,16,0,0,1,0,4,4,2,1,0,0,4,1,0,4,8,2,3,1,1,4,0,0,0,0,1,7,0,7,0,1,1,3,1,4,2,1,4,1,0,0,1,1,0,0,1,0,1,0,20,9,2.5,It was more of a guess- the chances were fairly equal,"I chose to take the risk and go in, and chose the option I believed had the highest chance of success",18,1,1,914,1,,1,2,2,0,2,2,0,0,2,2,2,2,2,2,2,4.5,0,2.8,3,0,0,0,0,1,1,0,0,1,1,1,0,1,1,5,1,3.5,4.5,4,2,6,4,4.5166669,12,2,,4,2,6,4,12,2,4.359375,2.5220752,4.6746345,4.0441155,.96875,1.2840095,.6534906,3.390625,4.5,4.46875,0,2.8,3,,17,Scenario A,0
1,270x3k8d,0,37,36,Non_clairvoyant_dynamic,Results,2021-10-17 15:12:41.374679,1,58,hhumyvd9,0,.1,Non_clairvoyant_dynamic,0,1,58,2,2,2,0,0,0,0,0,0,2,0,0,0,0,0,0,4,4,4,3,1,1,2,0,0,8,1,1,7,2,5,50,50,58,5.8000002,8,1,1,1,10,15.8,0,0,1,0,4,4,6,1,0,1,6,0,1,12,12,0,5,1,0,0,2,1,3,1,1,9,4,5,1,1,1,8,1,9,3,1,4,1,1,1,1,1,0,0,0,0,0,0,18,9,4,I bid a little higher than my true value,I took into account the membership fee when biding so I could still have enough point to get the item even if I had to pay the membership fee.,17,1,1,1017,1,0,1,0,0,2,2,4,0,2,2,2,2,4,3,2,4,4.5,0,2.8,3,1,2,1,1,1.5,2,1,1,1.5,2,1.75,0,1,5,5,1,3.5,4.5,4,2,6,4,4.5166669,12,2,,4,2,6,4,12,2,4.359375,2.5220752,4.6746345,4.0441155,.96875,1.2840095,.6534906,3.390625,4.5,4.46875,0,2.8,3,,16,Scenario A,0
6,goqg8xni,0,37,36,Non_clairvoyant_dynamic,Results,2021-09-13 16:33:49.638664,1,56,igdrqddk,0,.1,Non_clairvoyant_dynamic,0,6,56,2,2,2,1,1,0,0,0,0,2,1,0,0,0,0,0,4,4,8,2,1,0,8,0,-2,6,1,0,4,2,2,50,48,56,5.5999999,8,1,1,0,7,15.6,0,0,1,0,4,4,4,0,1,0,6,0,1,8,12,1,4,0,1,4,4,2,6,1,1,8,0,8,1,1,1,4,1,4,2,1,4,1,1,1,1,1,1,1,0,0,0,0,20,5,3,I bid the amount of points that I valued the item as.,"I don't take many risks, if there's a less than 50% chance I can get a higher amount of points I won't take it.",12,1,1,913,1,,1,2,2,0,2,4,0,2,2,2,2,4,2,2,4,4.5,0,2.8,3,0,2,0,1,1,2,0,1,1,2,1.5,-2,1,7,7,1,3.5,4.5,4,2,6,4,4.5166669,12,2,,4,2,6,4,12,2,4.359375,2.5220752,4.6746345,4.0441155,.96875,1.2840095,.6534906,3.390625,4.5,4.46875,0,2.8,3,,16,Scenario A,0
11,ws8vvaji,0,37,36,Non_clairvoyant_dynamic,Results,2021-09-26 16:38:51.599295,1,61,5kbhy2vn,0,.1,Non_clairvoyant_dynamic,0,11,61,2,2,2,1,0,0,0,0,0,8,0,0,1,0,0,0,4,16,8,2,1,1,2,0,6,11,1,1,6,2,4,50,56,61,6.0999999,5,1,1,0,6,16.1,0,0,1,0,4,4,2,1,0,0,6,0,1,4,12,4,1,1,1,4,0,2,2,0,1,5,0,5,0,1,1,1,1,4,2,1,6,1,1,1,1,0,0,0,0,0,0,1,19,3,,Take minimal risks and aim to minimize possible loss. My bids were made so I couldn't pay more than my secret value.,"I chose option B when I was more likely to get a higher profit in tokens, and because I had precisely 56 tokens, I felt fine. Even 5 points would top me off to the next dollar amount.",10,1,1,926,1,0,1,0,0,2,2,4,0,2,2,2,2,4,2,2,4,4.5,0,2.8,3,0,-2,0,0,1,.75,0,0,1,.75,.875,6,1,4,4,1,3.5,4.5,4,2,6,4,4.5166669,12,2,,4,2,6,4,12,2,4.359375,2.5220752,4.6746345,4.0441155,.96875,1.2840095,.6534906,3.390625,4.5,4.46875,0,2.8,3,,17,Scenario A,0
12,sd6izmxw,0,37,36,Non_clairvoyant_dynamic,Results,2021-09-13 16:36:39.330331,1,60,igdrqddk,0,.1,Non_clairvoyant_dynamic,0,12,60,2,2,4,0,1,0,0,0,0,2,1,0,0,0,0,0,8,4,2,4,1,1,2,2,0,10,1,1,8,2,6,52,52,60,6,8,1,1,1,10,16,0,0,1,0,4,4,4,0,1,0,6,0,1,8,12,2,3,0,1,4,4,2,6,1,1,7,0,7,0,1,1,3,1,6,4,1,4,1,1,1,1,1,1,0,0,0,0,1,20,3,3.5999999,"made the highest bid possible, it was the safest option",made the highest bid possible,6,1,1,913,1,,1,0,0,2,2,4,0,2,4,4,2,4,4,2,4,4.5,0,2.8,3,0,2,0,1,1,2,0,1,1,2,1.5,2,1,6,6,1,3.5,4.5,4,2,6,4,4.5166669,12,2,,4,2,6,4,12,2,4.359375,2.5220752,4.6746345,4.0441155,.96875,1.2840095,.6534906,3.390625,4.5,4.46875,0,2.8,3,,17,Scenario A,0
11,1svy5qcr,0,37,36,Non_clairvoyant_dynamic,Results,2021-09-13 16:33:32.621909,1,70,igdrqddk,0,.1,Non_clairvoyant_dynamic,0,11,70,2,2,4,0,1,0,0,0,0,2,1,0,0,0,0,0,8,4,2,4,0,1,2,4,0,20,1,1,6,0,6,54,54,70,7,16,1,1,1,3,17,0,0,1,0,4,4,6,0,0,1,4,1,0,12,8,0,5,0,0,0,6,-1,5,1,1,5,0,5,1,1,1,8,1,4,4,1,2,1,1,0,0,0,0,0,0,0,0,0,26,5,,,,11,1,1,913,1,,1,0,0,2,2,2,0,0,4,4,2,2,4,2,2,4.5,0,2.8,3,0,0,0,0,1,1,0,0,1,1,1,4,1,2,2,1,3.5,4.5,4,2,6,4,4.5166669,12,2,,4,2,6,4,12,2,4.359375,2.5220752,4.6746345,4.0441155,.96875,1.2840095,.6534906,3.390625,4.5,4.46875,0,2.8,3,,18,Scenario A,0
16,ckm0o9v2,0,37,36,Non_clairvoyant_dynamic,Results,2021-09-26 16:40:09.581468,1,90,5kbhy2vn,0,.1,Non_clairvoyant_dynamic,0,16,90,2,2,2,1,0,0,0,0,0,32,0,0,0,0,1,0,4,64,4,3,0,1,2,2,30,40,1,1,5,0,5,52,82,90,9,8,1,1,1,6,19,0,0,1,0,4,4,4,0,1,0,6,0,1,8,12,1,4,1,0,1,0,1,1,1,1,9,4,5,1,1,1,4,1,8,3,1,36,1,1,1,0,1,0,1,0,1,0,0,23,5,9,,,14,1,1,926,1,0,1,0,0,2,2,2,0,0,2,2,2,2,3,2,2,4.5,0,2.8,3,1,4,1,1,1.5,1.125,1,1,1.5,1.125,1.3125,32,1,3,6,1,3.5,4.5,4,2,6,4,4.5166669,12,2,,4,2,6,4,12,2,4.359375,2.5220752,4.6746345,4.0441155,.96875,1.2840095,.6534906,3.390625,4.5,4.46875,0,2.8,3,,20,Scenario A,0
12,ax620ksq,0,37,36,Non_clairvoyant_dynamic,Results,2021-09-14 16:27:48.619283,1,66,bbp27rqb,0,.1,Non_clairvoyant_dynamic,0,12,66,2,2,4,0,1,0,0,0,0,4,0,1,0,0,0,0,8,8,0,6,0,1,2,4,2,16,1,1,8,0,8,54,56,66,6.5999999,10,1,1,1,3,16.6,0,0,1,0,4,4,2,1,0,0,6,0,1,4,12,2,3,1,1,4,0,2,2,0,1,7,0,7,0,1,1,3,1,5,6,1,7,1,1,1,0,1,0,0,0,0,0,0,21,9,3.76,I thought about the average of the value of the items,I based my decision on the membership fee and tried to not go under the secret price,12,1,1,914,1,,1,0,0,2,2,2,0,0,4,4,2,2,6,2,2,4.5,0,2.8,3,2,3,1,1,1.5,1.75,1,1,1.5,1.75,1.625,6,1,3,4,1,3.5,4.5,4,2,6,4,4.5166669,12,2,,4,2,6,4,12,2,4.359375,2.5220752,4.6746345,4.0441155,.96875,1.2840095,.6534906,3.390625,4.5,4.46875,0,2.8,3,,17,Scenario A,0
13,q3iris25,0,37,36,Non_clairvoyant_dynamic,Results,2021-09-26 16:39:13.575334,1,68,5kbhy2vn,0,.1,Non_clairvoyant_dynamic,0,13,68,2,2,4,0,1,0,0,0,0,8,0,0,1,0,0,0,8,16,2,4,1,1,2,2,6,18,1,1,8,2,6,52,58,68,6.8000002,10,1,1,1,3,16.799999,0,0,1,0,4,4,6,0,0,1,6,0,1,12,12,0,5,1,1,4,2,2,4,1,1,13,4,9,1,1,1,5,1,6,4,1,5,1,1,1,1,1,1,1,0,0,0,1,28,10,4,I will usually choose a bid higher than the value of the third quantile of the whole data distribution (75% or higher),Risk management. I can only trust my luck when the probability can reach 0.8 or higher.,11,1,1,926,1,1,1,0,0,2,2,4,0,2,4,4,2,4,4,2,4,4.5,0,2.8,3,0,-3,0,0,1,.625,0,0,1,.625,.8125,8,1,7,7,1,3.5,4.5,4,2,6,4,4.5166669,12,2,,4,2,6,4,12,2,4.359375,2.5220752,4.6746345,4.0441155,.96875,1.2840095,.6534906,3.390625,4.5,4.46875,0,2.8,3,,17,Scenario A,0
7,netzk6ig,0,37,36,Non_clairvoyant_dynamic,Results,2021-09-26 16:37:26.989063,1,62,5kbhy2vn,0,.1,Non_clairvoyant_dynamic,0,7,62,2,2,4,0,1,0,0,0,0,2,1,0,0,0,0,0,8,4,2,4,0,1,2,4,0,12,1,1,6,0,6,54,54,62,6.1999998,8,1,1,1,6,16.200001,0,0,1,0,4,4,4,0,1,0,4,1,0,8,8,0,5,0,1,4,4,0,4,1,1,9,0,9,1,1,1,5,1,6,4,1,3,1,1,1,1,1,0,0,0,0,0,1,22,7,,,"I chose the option with the best chances of earning the most points. As the fifth and sixth decisions were closer to 50/50, I decided to risk getting less for the chance of getting more points.",15,1,1,926,1,1,1,0,0,2,2,2,0,0,4,4,2,2,4,2,2,4.5,0,2.8,3,0,1,0,1,1,1.5,0,1,1,1.5,1.25,4,1,5,5,1,3.5,4.5,4,2,6,4,4.5166669,12,2,,4,2,6,4,12,2,4.359375,2.5220752,4.6746345,4.0441155,.96875,1.2840095,.6534906,3.390625,4.5,4.46875,0,2.8,3,,17,Scenario A,0
18,6ih6iwyw,0,37,36,Non_clairvoyant_dynamic,Results,2021-10-10 16:35:11.443446,1,77,ihlggr6e,0,.1,Non_clairvoyant_dynamic,0,18,77,2,2,2,0,0,0,0,0,0,32,0,0,0,0,0,0,4,64,8,2,1,0,8,0,22,27,1,1,12,2,10,50,72,77,7.6999998,5,1,1,1,9,17.700001,0,0,1,0,4,4,4,0,1,0,4,1,0,8,8,1,4,1,1,4,0,0,0,1,,4,4,0,1,0,0,4,0,,2,1,32,0,1,1,1,0,0,1,0,1,0,0,20,1,3.5,I made my decision by bidding the amount I had and not going over or under.,I made my decision by probability ,18,1,1,1010,1,0,1,2,10,0,10,12,1,2,2,10,10,12,10,10,12,4.5,0,2.8,3,0,0,0,0,1,1,0,0,1,1,1,22,1,3,5,1,3.5,4.5,4,2,6,4,4.5166669,12,2,12,4,2,6,4,12,2,4.359375,2.5220752,4.6746345,4.0441155,.96875,1.2840095,.6534906,3.390625,4.5,4.46875,0,2.8,3,12,18,Scenario A,0
2,4xxll5s3,0,37,36,Non_clairvoyant_dynamic,Results,2021-09-14 16:26:36.253951,1,61,bbp27rqb,0,.1,Non_clairvoyant_dynamic,0,2,61,2,2,4,0,1,0,0,0,0,4,0,1,0,0,0,0,8,8,2,4,0,1,2,4,2,11,1,1,6,0,6,54,56,61,6.0999999,5,1,1,1,8,16.1,0,0,1,0,4,4,6,0,0,1,6,0,1,12,12,0,5,1,1,4,2,2,4,1,1,13,4,9,1,1,1,5,1,6,4,1,2,1,1,1,1,0,0,0,0,0,0,0,19,10,3.8,I usually chose the the middle of the integer options.,I also tended to choose the middle of the integer options.,2,1,1,914,1,,1,0,0,2,2,2,0,0,4,4,2,2,4,2,2,4.5,0,2.8,3,0,-2,0,0,1,.5,0,0,1,.5,.75,6,1,4,4,1,3.5,4.5,4,2,6,4,4.5166669,12,2,,4,2,6,4,12,2,4.359375,2.5220752,4.6746345,4.0441155,.96875,1.2840095,.6534906,3.390625,4.5,4.46875,0,2.8,3,,17,Scenario A,0
5,3o2bqwbs,0,37,36,Non_clairvoyant_dynamic,Results,2021-09-14 16:27:03.965368,1,92,bbp27rqb,0,.1,Non_clairvoyant_dynamic,0,5,92,2,2,4,0,1,0,0,0,0,32,0,0,0,0,1,0,8,64,2,4,0,1,2,4,30,42,1,1,6,0,6,54,84,92,9.1999998,8,1,1,1,8,19.200001,0,0,1,0,4,4,2,1,0,0,6,0,1,4,12,3,2,1,0,3,0,1,1,0,1,5,0,5,0,1,1,2,1,6,4,1,32,1,0,1,1,1,0,0,1,0,1,0,22,5,7.5,maybe by working smart and focusing in secret price,by waiving the membership fee if the bid is higher,5,1,1,914,1,,1,0,0,2,2,2,0,0,4,4,2,2,4,2,2,4.5,0,2.8,3,0,0,0,0,1,1,0,0,1,1,1,34,1,1,6,1,3.5,4.5,4,2,6,4,4.5166669,12,2,,4,2,6,4,12,2,4.359375,2.5220752,4.6746345,4.0441155,.96875,1.2840095,.6534906,3.390625,4.5,4.46875,0,2.8,3,,20,Scenario A,0
9,ntbkyicn,0,37,36,Non_clairvoyant_dynamic,Results,2021-09-14 16:27:27.702309,1,63,bbp27rqb,0,.1,Non_clairvoyant_dynamic,0,9,63,2,2,2,1,0,0,0,0,0,4,0,1,0,0,0,0,4,8,4,3,1,0,4,0,-3,13,1,1,9,2,7,50,47,63,6.3000002,16,1,1,1,1,16.299999,0,0,1,0,4,4,2,1,0,0,6,0,1,4,12,1,4,1,1,4,-2,2,0,1,1,12,4,8,1,1,1,4,1,7,3,1,5,1,1,1,1,0,0,0,0,0,0,1,25,10,3.6300001,Assessing risk against potential reward,Assessing risk against potential reward,9,1,1,914,1,,1,3,7,0,7,9,1,2,2,6,6,8,7,6,8,4.5,0,2.8,3,1,1,1,1,1.5,1.25,1,1,1.5,1.25,1.375,-3,1,4,4,1,3.5,4.5,4,2,6,4,4.5166669,12,2,,4,2,6,4,12,2,4.359375,2.5220752,4.6746345,4.0441155,.96875,1.2840095,.6534906,3.390625,4.5,4.46875,0,2.8,3,,17,Scenario A,0
3,f1fxlo40,0,37,36,Non_clairvoyant_dynamic,Results,2021-09-13 16:30:09.319737,1,57,igdrqddk,0,.1,Non_clairvoyant_dynamic,0,3,57,2,2,4,0,1,0,0,0,0,8,0,0,1,0,0,0,8,16,8,2,0,0,8,4,-2,7,1,0,2,0,2,54,52,57,5.6999998,5,1,1,0,9,15.7,0,0,1,0,4,4,4,0,1,0,4,1,0,8,8,0,5,0,1,4,4,0,4,1,,0,0,0,1,0,0,5,0,,2,1,4,0,0,0,0,0,0,0,0,0,0,1,18,2,3.0999999,I thought about it,I thought about it,3,1,1,913,1,,1,2,2,0,2,2,1,0,4,12,12,12,10,12,12,4.5,0,2.8,3,-2,-4,0,0,.5,.5,0,0,.5,.5,.5,2,1,0,0,1,3.5,4.5,4,2,6,4,4.5166669,12,2,,4,2,6,4,12,2,4.359375,2.5220752,4.6746345,4.0441155,.96875,1.2840095,.6534906,3.390625,4.5,4.46875,0,2.8,3,,16,Scenario A,0
3,xqjjzn29,0,37,36,Non_clairvoyant_dynamic,Results,2021-10-17 15:13:05.208320,1,59,hhumyvd9,0,.1,Non_clairvoyant_dynamic,0,3,59,2,2,4,0,0,0,0,0,0,2,0,0,0,0,0,0,8,4,4,3,0,0,4,4,-3,9,1,0,3,0,3,54,51,59,5.9000001,8,1,0,0,8,15.9,0,0,1,0,4,4,6,0,1,1,4,1,0,12,8,0,5,1,0,0,2,0,2,1,,4,4,0,1,0,0,5,0,,3,1,1,1,1,1,1,1,0,0,0,0,0,0,23,5,3.0999999,"Used the concept of basic haggling in the markets (like grocery stores). In general, in grocery stores (from local vendors), we decide on a value and try to bargain for amount less than the decided value",Tried my luck by paying the membership fee and failed,19,1,1,1017,1,1,1,3,3,0,3,3,0,0,4,4,4,4,3,4,4,4.5,0,2.8,3,-1,-1,0,0,.75,.5,0,0,.75,.5,.625,1,1,5,5,1,3.5,4.5,4,2,6,4,4.5166669,12,2,,4,2,6,4,12,2,4.359375,2.5220752,4.6746345,4.0441155,.96875,1.2840095,.6534906,3.390625,4.5,4.46875,0,2.8,3,,16,Scenario A,0
6,ufvv9uue,0,37,36,Non_clairvoyant_dynamic,Results,2021-09-14 16:27:11.560602,1,64,bbp27rqb,0,.1,Non_clairvoyant_dynamic,0,6,64,2,2,2,1,0,0,0,0,0,2,1,0,0,0,0,0,4,4,2,4,0,0,2,2,-4,14,1,1,6,0,6,52,48,64,6.4000001,16,1,1,1,1,16.4,0,0,1,0,4,4,4,0,1,0,4,1,0,8,8,1,4,0,1,4,4,0,4,1,1,8,0,8,1,1,1,4,1,4,4,1,4,1,1,1,0,0,0,0,0,0,0,1,21,10,3.9400001,I didn't quite understand the first period in all honesty.,"As for the first period, I didn't quite understand the second period.  For the bonus rounds, I tried averaging out probabilities.",6,1,1,914,1,,1,4,6,0,6,6,1,0,2,4,4,4,6,4,4,4.5,0,2.8,3,2,2,1,1,2,2,1,1,2,2,2,-2,1,3,3,1,3.5,4.5,4,2,6,4,4.5166669,12,2,,4,2,6,4,12,2,4.359375,2.5220752,4.6746345,4.0441155,.96875,1.2840095,.6534906,3.390625,4.5,4.46875,0,2.8,3,,17,Scenario A,0
12,jr6clsvq,0,37,36,Non_clairvoyant_dynamic,Results,2021-09-26 16:38:54.534503,1,58,5kbhy2vn,0,.1,Non_clairvoyant_dynamic,0,12,58,2,2,2,1,0,0,0,0,0,8,0,0,1,0,0,0,4,16,8,2,0,0,8,2,-2,8,1,1,10,0,10,52,50,58,5.8000002,8,1,1,1,9,15.8,0,0,1,0,4,4,4,1,1,0,4,1,0,8,8,1,4,0,1,4,4,0,4,1,1,8,0,8,1,1,1,4,1,4,2,1,8,1,1,1,1,1,1,1,0,0,0,1,27,3,3.8,Pay as much as my true value,Pay membership fee and bid as much as my true value,16,1,1,926,1,1,1,2,10,0,10,10,1,0,2,10,10,10,10,10,10,4.5,0,2.8,3,0,0,0,0,1,1,0,0,1,1,1,0,1,7,7,1,3.5,4.5,4,2,6,4,4.5166669,12,2,,4,2,6,4,12,2,4.359375,2.5220752,4.6746345,4.0441155,.96875,1.2840095,.6534906,3.390625,4.5,4.46875,0,2.8,3,,16,Scenario A,0
5,pvy3pm8j,0,37,36,Non_clairvoyant_dynamic,Results,2021-09-13 16:32:01.372702,1,66,igdrqddk,0,.1,Non_clairvoyant_dynamic,0,5,66,2,2,2,1,0,0,0,0,0,2,1,0,0,0,0,0,4,4,8,2,1,0,8,0,0,16,1,0,2,2,0,50,50,66,6.5999999,16,1,0,0,3,16.6,0,0,1,0,4,4,2,1,0,0,6,0,1,4,12,3,2,1,1,4,0,2,2,0,1,6,0,6,0,1,1,2,1,8,2,0,,1,1,1,1,0,1,1,0,0,0,1,22,3,,,,5,1,1,913,1,,1,0,0,0,0,2,0,2,2,2,2,4,2,2,4,4.5,0,2.8,3,0,,0,1,1,,0,1,1,,0,0,1,4,6,1,3.5,4.5,,,,,,,,,4,2,6,4,12,2,4.359375,2.5220752,4.6746345,4.0441155,.96875,1.2840095,.6534906,3.390625,4.5,4.46875,0,2.8,3,,17,Scenario A,0
9,3zryn4ic,0,37,36,Non_clairvoyant_dynamic,Results,2021-09-13 16:39:28.326743,1,70,igdrqddk,0,.1,Non_clairvoyant_dynamic,0,9,70,2,2,2,1,0,0,0,0,0,4,0,1,0,0,0,0,4,8,4,3,0,1,2,2,2,20,1,1,5,0,5,52,54,70,7,16,1,1,1,5,17,0,0,1,0,4,4,4,0,1,0,4,1,0,8,8,0,5,0,1,4,4,0,4,1,1,9,0,9,1,1,1,5,1,6,3,1,4,1,1,1,1,0,0,0,0,0,0,0,19,10,2.79,Bid high since I had a better chance of winning and I still only had to pay whatever the original fee was,Bid my price since I paid the membership fee,9,1,1,913,1,,1,0,0,2,2,2,0,0,2,2,2,2,3,2,2,4.5,0,2.8,3,1,0,1,0,1.5,1,1,0,1.5,1,1.25,4,1,4,4,1,3.5,4.5,4,2,6,4,4.5166669,12,2,,4,2,6,4,12,2,4.359375,2.5220752,4.6746345,4.0441155,.96875,1.2840095,.6534906,3.390625,4.5,4.46875,0,2.8,3,,18,Scenario A,0
19,g0f6jws6,0,37,36,Non_clairvoyant_dynamic,Results,2021-09-13 16:42:12.679177,1,62,igdrqddk,0,.1,Non_clairvoyant_dynamic,0,19,62,2,2,4,0,1,0,0,0,0,2,1,0,0,0,0,0,8,4,2,4,1,1,2,2,0,12,1,0,2,2,0,52,52,62,6.1999998,10,1,0,0,1,16.200001,0,0,1,0,4,4,2,1,0,0,4,1,0,4,8,1,4,0,0,1,2,-1,1,1,1,5,0,5,1,1,1,4,1,8,4,0,,1,0,1,1,1,1,0,0,0,0,0,22,5,3.5999999,Since I got a profit the first time I didn't want to go again with my luck,I wanted to choose the lower option the first 5 then higher option for the next 5 cause my chances were higher,19,1,1,913,1,,1,0,0,0,0,2,0,2,4,4,2,4,4,2,4,4.5,0,2.8,3,0,,0,1,1,,0,1,1,,0,2,1,1,5,1,3.5,4.5,,,,,,,,,4,2,6,4,12,2,4.359375,2.5220752,4.6746345,4.0441155,.96875,1.2840095,.6534906,3.390625,4.5,4.46875,0,2.8,3,,17,Scenario A,0
14,6r84hc9h,0,25,24,Static_mechanism_worse_1,Results,2021-09-14 17:49:55.426472,1,72,euvcknah,0,.1,Static_mechanism_worse_1,0,14,72,2,2,2,1,0,0,0,0,0,8,0,0,1,0,0,0,4,16,,0,0,0,,0,6,22,1,1,4,2,2,50,56,72,7.1999998,16,,,,5,17.200001,0,0,,,4,4,4,0,1,0,4,1,1,8,8,,,,,,0,0,0,1,1,8,4,4,,,,4,,4,2,,6,1,1,1,1,0,0,0,0,0,0,1,18,7,,I chose my personal value,"I chose a number that I thought was assigned to me, based off of a gut feeling.",14,1,1,914,3,,2,,,,2,4,0,0,0,,,,,,4,4,0,2.8,3,0,-2,0,0,1,.75,0,0,1,.75,.875,6,0,4,4,2,2,4,4,4,4,0,3.84375,4,2,4,4,4,4,0,4,2,3.84375,.54097944,3.9113724,3.7761276,1.9375,2.0051224,1.8698776,1.90625,4,3.84375,0,2.8,3,4,18,Scenario A,1
11,wwriqz1m,0,25,24,Static_mechanism_worse_1,Results,2021-10-10 19:10:54.384843,1,57,rdu5yqbr,0,.1,Static_mechanism_worse_1,0,11,57,2,2,4,0,0,0,0,0,0,2,0,0,0,0,0,0,8,4,,0,0,0,,2,0,7,1,1,4,2,2,52,52,57,5.6999998,5,,,,9,15.7,0,0,,,4,4,4,0,1,0,6,0,1,8,12,,,,,,0,2,2,1,1,8,4,4,,,,6,,6,4,,2,1,1,1,1,0,0,0,0,0,0,0,21,10,,,,20,1,1,1010,3,0,2,,,,2,4,0,0,0,,,,,,4,4,0,2.8,3,0,0,0,0,1,1,0,0,1,1,1,2,0,4,4,2,2,4,4,4,4,0,3.84375,4,2,4,4,4,4,0,4,2,3.84375,.54097944,3.9113724,3.7761276,1.9375,2.0051224,1.8698776,1.90625,4,3.84375,0,2.8,3,4,16,Scenario A,1
15,6yrj9klq,0,25,24,Static_mechanism_worse_1,Results,2021-09-13 19:16:25.374871,1,57,z3juhl9y,0,.1,Static_mechanism_worse_1,0,15,57,2,2,2,1,0,0,0,0,0,4,0,1,0,0,0,0,4,8,,0,0,0,,0,2,7,1,1,4,2,2,50,52,57,5.6999998,5,,,,8,16,0,0,,,4,4,2,1,0,0,6,1,1,4,12,,,,,,0,2,2,0,1,4,0,4,,,,2,,6,4,,4,1,1,1,0,0,0,0,0,0,0,0,22,9,3.01,I made it based off of how likely each outcome was.,I based it off the probability of each outcome.,15,1,1,913,3,,2,,,,2,4,0,0,0,,,,,,4,4,0,2.8,3,2,0,1,0,2,1,1,0,2,1,1.5,2,0,3,3,2,2,4,4,4,4,0,3.84375,4,2,4,4,4,4,0,4,2,3.84375,.54097944,3.9113724,3.7761276,1.9375,2.0051224,1.8698776,1.90625,4,3.84375,0,2.8,3,4,17,Scenario A,1
2,96vhltur,0,25,24,Static_mechanism_worse_1,Results,2021-09-14 17:48:09.180570,1,74,euvcknah,0,.1,Static_mechanism_worse_1,0,2,74,2,2,4,0,1,0,0,0,0,8,0,0,1,0,0,0,8,16,,0,0,0,,2,6,24,1,1,4,2,2,52,58,74,7.4000001,16,,,,5,17.4,0,0,,,4,4,4,0,1,0,4,1,0,8,8,,,,,,0,0,0,1,1,8,4,4,,,,5,,4,2,,4,1,0,1,1,0,1,0,0,1,0,0,25,5,3.4000001,Based on true value greater than secret price,50 chance for true value to secret price,2,1,1,914,3,,2,,,,2,4,0,0,0,,,,,,4,4,0,2.8,3,-2,-4,0,0,.5,.5,0,0,.5,.5,.5,8,0,1,5,2,2,4,4,4,4,0,3.84375,4,2,4,4,4,4,0,4,2,3.84375,.54097944,3.9113724,3.7761276,1.9375,2.0051224,1.8698776,1.90625,4,3.84375,0,2.8,3,4,18,Scenario A,1
13,krursgo8,0,25,24,Static_mechanism_worse_1,Results,2021-09-14 17:49:47.162960,1,70,euvcknah,0,.1,Static_mechanism_worse_1,0,13,70,2,2,4,0,1,0,0,0,0,4,0,1,0,0,0,0,8,8,,0,0,0,,2,2,20,1,1,4,2,2,52,54,70,7,16,,,,5,17,0,0,,,4,4,6,0,0,1,6,0,1,12,12,,,,,,2,2,4,1,1,8,4,4,,,,7,,6,5,,7,1,0,1,1,0,0,1,1,0,0,0,21,8,3.5,I made the decision in the first period using only numbers that were greater than 4. I assumed that the secret value was less. ,I made the decision in the second period by using what seemed more favorable and likely. ,13,1,1,914,3,,2,,,,2,4,0,0,0,,,,,,4,4,0,2.8,3,1,3,1,1,1.25,1.75,1,1,1.25,1.75,1.5,4,0,1,5,2,2,4,4,4,4,0,3.84375,4,2,4,4,4,4,0,4,2,3.84375,.54097944,3.9113724,3.7761276,1.9375,2.0051224,1.8698776,1.90625,4,3.84375,0,2.8,3,4,18,Scenario A,1
10,cdju7gsl,0,25,24,Static_mechanism_worse_1,Results,2021-09-26 17:43:46.585734,1,76,t8zrstny,0,.1,Static_mechanism_worse_1,0,10,76,2,2,4,0,1,0,0,0,0,16,0,0,0,1,0,0,8,32,,0,0,0,,2,14,26,1,1,4,2,2,52,66,76,7.5999999,10,,,,5,17.6,0,0,,,4,4,6,0,0,1,4,1,0,12,8,,,,,,2,0,2,1,1,8,4,4,,,,6,,7,4,,14,1,1,0,1,1,0,1,1,1,1,0,20,5,3.3,I mostly choose the middle value of the number when I had a small number of tokens. And 1/4th of the total value of my tokens when the number was higher ,It was randomly,23,1,1,926,3,0,2,,,,2,4,0,0,0,,,,,,4,4,0,2.8,3,0,-2,0,0,1,.875,0,0,1,.875,.9375,16,0,2,8,2,2,4,4,4,4,0,3.84375,4,2,4,4,4,4,0,4,2,3.84375,.54097944,3.9113724,3.7761276,1.9375,2.0051224,1.8698776,1.90625,4,3.84375,0,2.8,3,4,18,Scenario A,1
11,piq4r2ya,0,25,24,Static_mechanism_worse_1,Results,2021-09-14 17:49:31.414225,1,62,euvcknah,0,.1,Static_mechanism_worse_1,0,11,62,2,2,4,0,1,0,0,0,0,2,1,0,0,0,0,0,8,4,,0,0,0,,2,0,12,1,1,4,2,2,52,52,62,6.1999998,10,,,,1,16.200001,0,0,,,4,4,2,1,0,0,6,0,1,4,12,,,,,,0,2,2,0,1,4,0,4,,,,1,,5,5,,2,0,0,1,0,1,1,1,1,0,1,0,21,8,3.4400001,Look at the value then determine how much to bid for,Look at the value then determine how much to bid for,11,1,1,914,3,,2,,,,2,4,0,0,0,,,,,,4,4,0,2.8,3,1,0,1,0,1.25,1,1,0,1.25,1,1.125,2,0,1,6,2,2,4,4,4,4,0,3.84375,4,2,4,4,4,4,0,4,2,3.84375,.54097944,3.9113724,3.7761276,1.9375,2.0051224,1.8698776,1.90625,4,3.84375,0,2.8,3,4,17,Scenario A,1
4,xy09rh2x,0,25,24,Static_mechanism_worse_1,Results,2021-10-10 18:01:26.766739,1,58,rdu5yqbr,0,.1,Static_mechanism_worse_1,0,4,58,2,2,2,0,0,0,0,0,0,2,0,0,0,0,0,0,4,4,,0,0,0,,0,0,8,1,1,4,2,2,50,50,58,5.8000002,8,,,,9,15.8,0,0,,,4,4,2,1,0,1,4,1,0,4,8,,,,,,-2,0,-2,1,1,8,4,4,,,,4,,4,2,,2,1,1,1,1,1,1,1,1,0,0,1,18,9,4,"I deduced that there was never a reason to bid more or less than your own true value. You want to bid as high as possible to increase your chance of getting the item, because you don't have to pay your bid if you get it; but if the secret price is more than your true value, you get the item but lose money. ","In the bonus section, I would always rather get 8 points than 5 so it was never worth it to choose option B until I got to decision 9 where I accepted the 1% risk of five points and of course decision ten where I was guaranteed 16 points if that was used to determine my profit. ",13,1,1,1010,3,0,2,,,,2,4,0,0,0,,,,,,4,4,0,2.8,3,0,0,0,0,1,1,0,0,1,1,1,0,0,8,8,2,2,4,4,4,4,0,3.84375,4,2,4,4,4,4,0,4,2,3.84375,.54097944,3.9113724,3.7761276,1.9375,2.0051224,1.8698776,1.90625,4,3.84375,0,2.8,3,4,16,Scenario A,1
18,co0o9xn6,0,25,24,Static_mechanism_worse_1,Results,2021-09-13 19:17:07.945109,1,58,z3juhl9y,0,.1,Static_mechanism_worse_1,0,18,58,2,2,2,1,0,0,0,0,0,2,1,0,0,0,0,0,4,4,,0,0,0,,0,0,8,1,1,4,2,2,50,50,58,5.8000002,8,,,,8,16,0,0,,,4,4,6,0,0,1,6,0,1,12,12,,,,,,2,2,4,1,1,8,4,4,,,,9,,8,4,,4,1,0,1,1,1,1,0,0,0,0,0,21,1,3.75,"In the first period, I just tried to bid high. I thought it would make sense so then I didn't lose any points by going into the negatives...","The second period, I made decisions based on if I had a higher chance of winning a higher number, I would pick that. So, as the chances switched, my preferences between Option A and B did too. ",18,1,1,913,3,,2,,,,2,4,0,0,0,,,,,,4,4,0,2.8,3,2,2,1,1,2,2,1,1,2,2,2,0,0,1,5,2,2,4,4,4,4,0,3.84375,4,2,4,4,4,4,0,4,2,3.84375,.54097944,3.9113724,3.7761276,1.9375,2.0051224,1.8698776,1.90625,4,3.84375,0,2.8,3,4,17,Scenario A,1
1,8xvv0uoe,0,25,24,Static_mechanism_worse_1,Results,2021-09-13 19:13:16.794784,1,57,z3juhl9y,0,.1,Static_mechanism_worse_1,0,1,57,2,2,2,1,0,0,0,0,0,4,0,1,0,0,0,0,4,8,,0,0,0,,0,2,7,1,1,4,2,2,50,52,57,5.6999998,5,,,,10,16,0,0,,,4,4,6,0,0,1,4,1,1,12,8,,,,,,2,0,2,1,1,8,4,4,,,,7,,7,4,,6,1,0,1,1,0,1,1,0,0,0,0,20,5,3.53,Based off of probability,Guessing higher than 5 so that my odds increase.,1,1,1,913,3,,2,,,,2,4,0,0,0,,,,,,4,4,0,2.8,3,2,2,1,1,2,1.5,1,1,2,1.5,1.75,2,0,1,5,2,2,4,4,4,4,0,3.84375,4,2,4,4,4,4,0,4,2,3.84375,.54097944,3.9113724,3.7761276,1.9375,2.0051224,1.8698776,1.90625,4,3.84375,0,2.8,3,4,17,Scenario A,1
23,q1z61ogt,0,25,24,Static_mechanism_worse_1,Results,2021-09-13 19:18:09.446639,1,60,z3juhl9y,0,.1,Static_mechanism_worse_1,0,23,60,2,2,4,0,1,0,0,0,0,2,1,0,0,0,0,0,8,4,,0,0,0,,2,0,10,1,1,4,2,2,52,52,60,6,8,,,,9,16,0,0,,,4,4,4,0,1,0,6,0,1,8,12,,,,,,0,2,2,1,1,8,4,4,,,,6,,6,6,,4,1,1,1,1,1,1,1,1,1,0,0,20,8,3.9000001,Always bidding the same number regardless of the price. This study reminds me of stocks and stocks are unpredictable. Unpredictability always favors consistency. ,Same for the first period. Consistency is always favored by unpredictability. ,23,1,1,913,3,,2,,,,2,4,0,0,0,,,,,,4,4,0,2.8,3,2,2,1,1,1.5,2,1,1,1.5,2,1.75,2,0,9,9,2,2,4,4,4,4,0,3.84375,4,2,4,4,4,4,0,4,2,3.84375,.54097944,3.9113724,3.7761276,1.9375,2.0051224,1.8698776,1.90625,4,3.84375,0,2.8,3,4,17,Scenario A,1
6,ine6ere8,0,25,24,Static_mechanism_worse_1,Results,2021-09-14 17:48:47.422970,1,55,euvcknah,0,.1,Static_mechanism_worse_1,0,6,55,2,2,2,1,0,0,0,0,0,2,1,0,0,0,0,0,4,4,,0,0,0,,0,0,5,1,1,4,2,2,50,50,55,5.5,5,,,,9,15.5,0,0,,,4,4,6,0,0,1,6,0,1,12,12,,,,,,2,2,4,1,1,8,4,4,,,,6,,12,4,,2,1,1,1,1,0,0,0,0,0,0,0,22,8,,,,6,1,1,914,3,,2,,,,2,4,0,0,0,,,,,,4,4,0,2.8,3,2,0,1,0,2,1,1,0,2,1,1.5,0,0,4,4,2,2,4,4,4,4,0,3.84375,4,2,4,4,4,4,0,4,2,3.84375,.54097944,3.9113724,3.7761276,1.9375,2.0051224,1.8698776,1.90625,4,3.84375,0,2.8,3,4,16,Scenario A,1
7,wqrphztk,0,25,24,Static_mechanism_worse_1,Results,2021-10-10 18:02:15.906214,1,61,rdu5yqbr,0,.1,Static_mechanism_worse_1,0,7,61,2,2,2,0,0,0,0,0,0,8,0,0,0,0,0,0,4,16,,0,0,0,,0,6,11,1,1,4,2,2,50,56,61,6.0999999,5,,,,7,16.1,0,0,,,4,4,2,1,0,1,6,0,1,4,12,,,,,,0,2,2,0,1,4,0,4,,,,2,,7,4,,3,1,0,1,0,0,0,0,0,0,0,0,20,10,3.96,"I just looked at the chart to see how probable it was to get a certain value; then I decided I would bid a little bit more than my true value, just to receive the item -- I did not think about compensation","I knew that there was a great chance of your random number being selected if their were less numbers to choose from, so when the chances were low (in the first couple decisions), I decided to try out option A because they were out of 10 and 5",16,1,1,1010,3,0,2,,,,2,4,0,0,0,,,,,,4,4,0,2.8,3,2,-5,1,0,2,.375,1,0,2,.375,1.1875,6,0,1,2,2,2,4,4,4,4,0,3.84375,4,2,4,4,4,4,0,4,2,3.84375,.54097944,3.9113724,3.7761276,1.9375,2.0051224,1.8698776,1.90625,4,3.84375,0,2.8,3,4,17,Scenario A,1
5,aj4h55bf,0,25,24,Static_mechanism_worse_1,Results,2021-10-10 18:01:37.610221,1,68,rdu5yqbr,0,.1,Static_mechanism_worse_1,0,5,68,2,2,2,0,0,0,0,0,0,4,0,0,0,0,0,0,4,8,,0,0,0,,0,2,18,1,1,4,2,2,50,52,68,6.8000002,16,,,,1,16.799999,0,0,,,4,4,6,0,0,1,4,1,0,12,8,,,,,,0,0,0,0,1,4,0,4,,,,3,,6,4,,5,0,0,0,0,0,0,0,0,0,0,1,24,3,,Based on the probability of most proportion,Based on the probability of most proportion,14,1,1,1010,3,1,2,,,,2,4,0,0,0,,,,,,4,4,0,2.8,3,2,1,1,1,2,1.25,1,1,2,1.25,1.625,2,0,0,0,2,2,4,4,4,4,0,3.84375,4,2,4,4,4,4,0,4,2,3.84375,.54097944,3.9113724,3.7761276,1.9375,2.0051224,1.8698776,1.90625,4,3.84375,0,2.8,3,4,17,Scenario A,1
4,pmu81bcm,0,25,24,Static_mechanism_worse_1,Results,2021-09-13 19:13:56.342864,1,62,z3juhl9y,0,.1,Static_mechanism_worse_1,0,4,62,2,2,2,1,0,0,0,0,0,4,0,1,0,0,0,0,4,8,,0,0,0,,0,2,12,1,1,4,2,2,50,52,62,6.1999998,10,,,,2,16,0,0,,,4,4,2,1,0,0,6,0,1,4,12,,,,,,0,2,2,0,1,4,0,4,,,,3,,10,3,,6,1,1,1,1,1,0,0,0,0,0,0,20,8,3.9000001,Guessed to be honest,guessed,4,1,1,913,3,,2,,,,2,4,0,0,0,,,,,,4,4,0,2.8,3,1,2,1,1,1.5,1.5,1,1,1.5,1.5,1.5,2,0,5,5,2,2,4,4,4,4,0,3.84375,4,2,4,4,4,4,0,4,2,3.84375,.54097944,3.9113724,3.7761276,1.9375,2.0051224,1.8698776,1.90625,4,3.84375,0,2.8,3,4,17,Scenario A,1
15,hpn7nq5x,0,25,24,Static_mechanism_worse_1,Results,2021-09-14 17:50:07.246205,1,58,euvcknah,0,.1,Static_mechanism_worse_1,0,15,58,2,2,2,1,0,0,0,0,0,2,1,0,0,0,0,0,4,4,,0,0,0,,0,0,8,1,1,4,2,2,50,50,58,5.8000002,8,,,,8,15.8,0,0,,,4,4,6,0,0,1,4,1,0,12,8,,,,,,2,0,2,1,1,8,4,4,,,,9,,6,4,,4,1,0,0,1,1,1,0,0,0,0,0,21,8,,,,15,1,1,914,3,,2,,,,2,4,0,0,0,,,,,,4,4,0,2.8,3,2,2,1,1,2,2,1,1,2,2,2,0,0,1,4,2,2,4,4,4,4,0,3.84375,4,2,4,4,4,4,0,4,2,3.84375,.54097944,3.9113724,3.7761276,1.9375,2.0051224,1.8698776,1.90625,4,3.84375,0,2.8,3,4,16,Scenario A,1
8,awowm48g,0,25,24,Static_mechanism_worse_1,Results,2021-09-14 17:49:05.442187,1,55,euvcknah,0,.1,Static_mechanism_worse_1,0,8,55,2,2,2,1,0,0,0,0,0,2,1,0,0,0,0,0,4,4,,0,0,0,,0,0,5,1,1,4,2,2,50,50,55,5.5,5,,,,6,15.5,0,0,,,4,4,6,0,0,1,6,0,1,12,12,,,,,,2,2,4,1,1,8,4,4,,,,7,,7,3,,4,1,1,1,1,0,0,0,0,0,0,1,22,8,3.2,Tried to bid the lowest possible.,By bidding the max number.,8,1,1,914,3,,2,,,,2,4,0,0,0,,,,,,4,4,0,2.8,3,1,2,1,1,1.5,2,1,1,1.5,2,1.75,0,0,4,4,2,2,4,4,4,4,0,3.84375,4,2,4,4,4,4,0,4,2,3.84375,.54097944,3.9113724,3.7761276,1.9375,2.0051224,1.8698776,1.90625,4,3.84375,0,2.8,3,4,16,Scenario A,1
2,8f1fcs8c,0,25,24,Static_mechanism_worse_1,Results,2021-09-13 19:13:29.401336,1,68,z3juhl9y,0,.1,Static_mechanism_worse_1,0,2,68,2,2,4,0,1,0,0,0,0,2,1,0,0,0,0,0,8,4,,0,0,0,,2,0,18,1,1,4,2,2,52,52,68,6.8000002,16,,,,1,17,0,0,,,4,4,4,0,1,0,4,1,1,8,8,,,,,,0,0,0,1,1,8,4,4,,,,4,,6,6,,4,1,1,1,0,0,0,1,0,0,1,0,19,7,3.98,Trying to always get a number equal or higher to what the secret number could be,Trying to understand the probabilities of me getting more money by randomly getting numbers,2,1,1,913,3,,2,,,,2,4,0,0,0,,,,,,4,4,0,2.8,3,2,2,1,1,1.5,2,1,1,1.5,2,1.75,2,0,3,5,2,2,4,4,4,4,0,3.84375,4,2,4,4,4,4,0,4,2,3.84375,.54097944,3.9113724,3.7761276,1.9375,2.0051224,1.8698776,1.90625,4,3.84375,0,2.8,3,4,18,Scenario A,1
13,9105iw2z,0,25,24,Static_mechanism_worse_1,Results,2021-10-10 19:11:41.317828,1,70,rdu5yqbr,0,.1,Static_mechanism_worse_1,0,13,70,2,2,4,0,0,0,0,0,0,4,0,0,0,0,0,0,8,8,,0,0,0,,2,2,20,1,1,4,2,2,52,54,70,7,16,,,,3,17,0,0,,,4,4,4,0,1,0,6,0,1,8,12,,,,,,0,2,2,1,1,8,4,4,,,,8,,7,8,,8,1,1,1,1,0,0,0,0,0,0,0,36,3,3.8900001,bid for the highest value to get the item since I'm still paying the secret price no matter what,bid for the highest value to get the item since I'm still paying the secret price no matter what,22,1,1,1010,3,1,2,,,,2,4,0,0,0,,,,,,4,4,0,2.8,3,4,4,1,1,2,2,1,1,2,2,2,4,0,4,4,2,2,4,4,4,4,0,3.84375,4,2,4,4,4,4,0,4,2,3.84375,.54097944,3.9113724,3.7761276,1.9375,2.0051224,1.8698776,1.90625,4,3.84375,0,2.8,3,4,18,Scenario A,1
11,mmgavab7,0,25,24,Static_mechanism_worse_1,Results,2021-09-13 19:15:28.414047,1,57,z3juhl9y,0,.1,Static_mechanism_worse_1,0,11,57,2,2,2,1,0,0,0,0,0,4,0,1,0,0,0,0,4,8,,0,0,0,,0,2,7,1,1,4,2,2,50,52,57,5.6999998,5,,,,8,16,0,0,,,4,4,4,0,1,0,6,0,1,8,12,,,,,,0,2,2,1,1,8,4,4,,,,5,,5,2,,5,1,1,1,1,0,0,0,0,0,0,1,22,10,3.4100001,"In the decision in the first period, I ended playing fairly safe and bet one over the true value. ","In the second period, I made sure that I bet within the same true value to play even safer. ",11,1,1,913,3,,2,,,,2,4,0,0,0,,,,,,4,4,0,2.8,3,0,1,0,1,1,1.25,0,1,1,1.25,1.125,2,0,4,4,2,2,4,4,4,4,0,3.84375,4,2,4,4,4,4,0,4,2,3.84375,.54097944,3.9113724,3.7761276,1.9375,2.0051224,1.8698776,1.90625,4,3.84375,0,2.8,3,4,17,Scenario A,1
2,1hfj3uc0,0,25,24,Static_mechanism_worse_1,Results,2021-10-10 18:01:06.454729,1,60,rdu5yqbr,0,.1,Static_mechanism_worse_1,0,2,60,2,2,2,0,0,0,0,0,0,2,0,0,0,0,0,0,4,4,,0,0,0,,0,0,10,1,1,4,2,2,50,50,60,6,10,,,,2,16,0,0,,,4,4,6,0,1,1,4,1,0,12,8,,,,,,2,0,2,1,1,8,4,4,,,,7,,4,2,,2,1,1,1,1,1,0,0,0,0,0,1,23,5,,,,11,1,1,1010,3,1,2,,,,2,4,0,0,0,,,,,,4,4,0,2.8,3,0,0,0,0,1,1,0,0,1,1,1,0,0,5,5,2,2,4,4,4,4,0,3.84375,4,2,4,4,4,4,0,4,2,3.84375,.54097944,3.9113724,3.7761276,1.9375,2.0051224,1.8698776,1.90625,4,3.84375,0,2.8,3,4,17,Scenario A,1
20,wlgx1s0j,0,25,24,Static_mechanism_worse_1,Results,2021-09-13 19:17:29.684876,1,58,z3juhl9y,0,.1,Static_mechanism_worse_1,0,20,58,2,2,2,1,0,0,0,0,0,2,1,0,0,0,0,0,4,4,,0,0,0,,0,0,8,1,1,4,2,2,50,50,58,5.8000002,8,,,,7,16,0,0,,,4,4,4,0,1,0,6,0,1,8,12,,,,,,0,2,2,1,1,8,4,4,,,,4,,4,2,,2,1,1,1,1,1,1,0,0,0,0,0,20,6,3.48,"I was trying to bid low, but not too low as to still earn the value. I did not understand it too well in all honesty, and I wish I had more opportunity to practice.",I made the decision that I felt would have the greater chance of giving me more points.,20,1,1,913,3,,2,,,,2,4,0,0,0,,,,,,4,4,0,2.8,3,0,0,0,0,1,1,0,0,1,1,1,0,0,6,6,2,2,4,4,4,4,0,3.84375,4,2,4,4,4,4,0,4,2,3.84375,.54097944,3.9113724,3.7761276,1.9375,2.0051224,1.8698776,1.90625,4,3.84375,0,2.8,3,4,17,Scenario A,1
8,xo91hbfz,0,25,24,Static_mechanism_worse_1,Results,2021-09-26 16:48:38.914271,1,80,t8zrstny,0,.1,Static_mechanism_worse_1,0,8,80,2,2,2,1,0,0,0,0,0,16,0,0,0,1,0,0,4,32,,0,0,0,,0,14,30,1,1,4,2,2,50,64,80,8,16,,,,4,18,0,0,,,4,4,4,1,1,0,4,1,0,8,8,,,,,,0,0,0,1,0,4,4,0,,,,4,,2,3,,5,1,0,0,0,0,0,0,0,0,0,0,30,5,3.8499999,Based on the value given and percentage of others' values,Based on the probability,24,1,1,926,3,1,2,,,,2,4,0,0,0,,,,,,4,4,0,2.8,3,1,-11,1,0,1.5,.3125,1,0,1.5,.3125,.90625,14,0,1,1,2,2,4,4,4,4,0,3.84375,4,2,4,4,4,4,0,4,2,3.84375,.54097944,3.9113724,3.7761276,1.9375,2.0051224,1.8698776,1.90625,4,3.84375,0,2.8,3,4,19,Scenario A,1
6,dwtxadaz,0,25,24,Static_mechanism_worse_1,Results,2021-10-10 18:02:04.000206,1,68,rdu5yqbr,0,.1,Static_mechanism_worse_1,0,6,68,2,2,2,0,0,0,0,0,0,4,0,0,0,0,0,0,4,8,,0,0,0,,0,2,18,1,1,4,2,2,50,52,68,6.8000002,16,,,,5,16.799999,0,0,,,4,4,2,1,0,0,4,1,0,4,8,,,,,,0,0,0,0,1,4,0,4,,,,2,,4,2,,4,1,1,1,1,0,0,0,0,0,0,1,22,10,3.0999999,ensure I will not lose money,by intuition,15,1,1,1010,3,1,2,,,,2,4,0,0,0,,,,,,4,4,0,2.8,3,0,0,0,0,1,1,0,0,1,1,1,2,0,4,4,2,2,4,4,4,4,0,3.84375,4,2,4,4,4,4,0,4,2,3.84375,.54097944,3.9113724,3.7761276,1.9375,2.0051224,1.8698776,1.90625,4,3.84375,0,2.8,3,4,17,Scenario A,1
7,s8nq2jzy,0,25,24,Static_mechanism_worse_1,Results,2021-09-26 16:48:18.168121,1,74,t8zrstny,0,.1,Static_mechanism_worse_1,0,7,74,2,2,4,0,1,0,0,0,0,8,0,0,1,0,0,0,8,16,,0,0,0,,2,6,24,1,1,4,2,2,52,58,74,7.4000001,16,,,,3,17.4,0,0,,,4,4,4,0,1,1,4,1,0,8,8,,,,,,0,0,0,1,1,8,4,4,,,,7,,8,3,,9,1,0,0,0,0,0,0,0,0,0,1,25,5,3.74,I just make my decision on the bid higher than the secret price.,"I chose the higher bid number at first, and I try to make a decision that the bid higher than the secret price.",23,1,1,926,3,1,2,,,,2,4,0,0,0,,,,,,4,4,0,2.8,3,-1,1,0,1,.75,1.125,0,1,.75,1.125,.9375,8,0,1,1,2,2,4,4,4,4,0,3.84375,4,2,4,4,4,4,0,4,2,3.84375,.54097944,3.9113724,3.7761276,1.9375,2.0051224,1.8698776,1.90625,4,3.84375,0,2.8,3,4,18,Scenario A,1
12,9b2z4c8b,0,25,24,Static_mechanism_worse_1,Results,2021-10-10 19:11:29.134595,1,68,rdu5yqbr,0,.1,Static_mechanism_worse_1,0,12,68,2,2,4,0,0,0,0,0,0,2,0,0,0,0,0,0,8,4,,0,0,0,,2,0,18,1,1,4,2,2,52,52,68,6.8000002,16,,,,4,16.799999,0,0,,,4,4,2,1,0,0,6,0,1,4,12,,,,,,0,2,2,0,1,4,0,4,,,,2,,9,6,,3,1,1,1,0,0,1,1,0,0,0,1,20,2,3.4000001,Probability of the average payout between the two numbers,the numbers began to have a higher probability of a more favorable outcome,21,1,1,1010,3,0,2,,,,2,4,0,0,0,,,,,,4,4,0,2.8,3,2,1,1,1,1.5,1.5,1,1,1.5,1.5,1.5,2,0,3,5,2,2,4,4,4,4,0,3.84375,4,2,4,4,4,4,0,4,2,3.84375,.54097944,3.9113724,3.7761276,1.9375,2.0051224,1.8698776,1.90625,4,3.84375,0,2.8,3,4,17,Scenario A,1
12,lypz6u9f,0,25,24,Static_mechanism_worse_1,Results,2021-09-26 17:45:12.025036,1,90,t8zrstny,0,.1,Static_mechanism_worse_1,0,12,90,2,2,2,1,0,0,0,0,0,32,0,0,0,0,1,0,4,64,,0,0,0,,0,30,40,1,1,4,2,2,50,80,90,9,10,,,,5,19,0,0,,,4,4,6,0,0,1,4,1,0,12,8,,,,,,2,0,2,1,1,8,4,4,,,,7,,5,4,,30,1,1,1,1,1,0,0,0,0,0,0,19,9,3.8099999,"The decision I made in the first period was based on me estimating in my head the chances of the unknown value falling into a specific range, then attempting to pick a number in the range that I thought would maximize my chances of profit.","The same as the first; mental math and the estimation of values. The accuracy of this method can vary wildly, though.",26,1,1,926,3,0,2,,,,2,4,0,0,0,,,,,,4,4,0,2.8,3,2,-2,1,0,2,.9375,1,0,2,.9375,1.46875,30,0,5,5,2,2,4,4,4,4,0,3.84375,4,2,4,4,4,4,0,4,2,3.84375,.54097944,3.9113724,3.7761276,1.9375,2.0051224,1.8698776,1.90625,4,3.84375,0,2.8,3,4,20,Scenario A,1
7,ufradipi,0,25,24,Static_mechanism_worse_1,Results,2021-09-13 19:14:33.760428,1,57,z3juhl9y,0,.1,Static_mechanism_worse_1,0,7,57,2,2,4,0,1,0,0,0,0,2,1,0,0,0,0,0,8,4,,0,0,0,,2,0,7,1,0,2,2,0,52,52,57,5.6999998,5,,,,7,16,0,0,,,4,4,6,0,0,1,6,0,1,12,12,,,,,,2,2,4,1,1,8,4,4,,,,5,,5,3,,1,1,1,0,0,0,0,0,0,0,0,1,20,10,3.96,I chose a number slightly lower than my value of the item.,I chose a number slightly lower than my value of the item.,7,1,1,913,3,,2,,,,0,2,0,0,0,,,,,,2,4,0,2.8,3,-1,-1,0,0,.75,.5,0,0,.75,.5,.625,2,0,2,2,2,2,4,4,4,4,0,3.84375,4,2,2,4,4,4,0,4,2,3.84375,.54097944,3.9113724,3.7761276,1.9375,2.0051224,1.8698776,1.90625,4,3.84375,0,2.8,3,2,17,Scenario A,1
17,2privzfm,0,25,24,Static_mechanism_worse_1,Results,2021-09-13 19:16:56.218131,1,68,z3juhl9y,0,.1,Static_mechanism_worse_1,0,17,68,2,2,2,1,0,0,0,0,0,4,0,1,0,0,0,0,4,8,,0,0,0,,0,2,18,1,1,4,2,2,50,52,68,6.8000002,16,,,,2,17,0,0,,,4,4,4,0,1,0,6,0,1,8,12,,,,,,0,2,2,0,1,4,0,4,,,,3,,7,3,,6,1,1,1,0,0,1,0,0,0,0,1,21,5,3.5,"I like to risk getting the maximum profit possible. Since this experiment is low stakes, and calculating the worst possible payment per the time spent in this experiment, I figured its still worth the risk. The worst case scenario for me was still a good use of my time.","I was willing again to be a little riskier with my decision making. As stated in the previous section, it was worth choosing riskier options.",17,1,1,913,3,,2,,,,2,4,0,0,0,,,,,,4,4,0,2.8,3,1,2,1,1,1.5,1.5,1,1,1.5,1.5,1.5,2,0,3,4,2,2,4,4,4,4,0,3.84375,4,2,4,4,4,4,0,4,2,3.84375,.54097944,3.9113724,3.7761276,1.9375,2.0051224,1.8698776,1.90625,4,3.84375,0,2.8,3,4,18,Scenario A,1
3,lcgs4dzs,0,25,24,Static_mechanism_worse_1,Results,2021-09-26 16:46:55.367048,1,59,t8zrstny,0,.1,Static_mechanism_worse_1,0,3,59,2,2,4,0,1,0,0,0,0,4,0,1,0,0,0,0,8,8,,0,0,0,,2,2,9,1,1,4,2,2,52,54,59,5.9000001,5,,,,6,15.9,0,0,,,4,4,4,0,1,0,6,0,1,8,12,,,,,,0,2,2,1,1,8,4,4,,,,5,,8,6,,3,1,1,0,0,0,1,1,1,0,0,1,21,7,3.97,"I wasn't sure I completely understood what was expected, but I put higher numbers to always get the item.",I randomly chose 5 options from both sides.,19,1,1,926,3,0,2,,,,2,4,0,0,0,,,,,,4,4,0,2.8,3,2,-1,1,0,1.5,.75,1,0,1.5,.75,1.125,4,0,2,5,2,2,4,4,4,4,0,3.84375,4,2,4,4,4,4,0,4,2,3.84375,.54097944,3.9113724,3.7761276,1.9375,2.0051224,1.8698776,1.90625,4,3.84375,0,2.8,3,4,16,Scenario A,1
24,acopaeim,0,25,24,Static_mechanism_worse_1,Results,2021-09-13 19:18:41.015284,1,68,z3juhl9y,0,.1,Static_mechanism_worse_1,0,24,68,2,2,4,0,1,0,0,0,0,2,1,0,0,0,0,0,8,4,,0,0,0,,2,0,18,1,1,4,2,2,52,52,68,6.8000002,16,,,,1,17,0,0,,,4,4,2,1,0,0,4,1,0,4,8,,,,,,0,0,0,0,0,0,0,0,,,,3,,3,6,,4,1,0,1,1,0,0,0,0,0,0,0,28,10,3,By choosing the higher points.,By choosing the higher probability with the most points.,24,1,1,913,3,,2,,,,2,4,0,0,0,,,,,,4,4,0,2.8,3,2,2,1,1,1.5,2,1,1,1.5,2,1.75,2,0,1,3,2,2,4,4,4,4,0,3.84375,4,2,4,4,4,4,0,4,2,3.84375,.54097944,3.9113724,3.7761276,1.9375,2.0051224,1.8698776,1.90625,4,3.84375,0,2.8,3,4,18,Scenario A,1
10,clgnjhh3,0,25,24,Static_mechanism_worse_1,Results,2021-10-10 18:02:55.780241,1,60,rdu5yqbr,0,.1,Static_mechanism_worse_1,0,10,60,2,2,4,0,0,0,0,0,0,2,0,0,0,0,0,0,8,4,,0,0,0,,2,0,10,1,1,4,2,2,52,52,60,6,8,,,,6,16,0,0,,,4,4,4,1,1,0,6,0,1,8,12,,,,,,0,2,2,0,1,4,0,4,,,,2,,6,2,,2,1,1,1,1,1,1,0,0,0,0,0,21,9,3.72,"I did not want to go over the secret price that was given to me. Depending on the chances I either bid the same price or below, but never above. ","For total net profit option A was better, but option B had a higher chance of a bigger reward, because of this I picked option A until option B became too tempting for me to resist, for me this means a 70% chance and above of getting the 16 points.",19,1,1,1010,3,0,2,,,,2,4,0,0,0,,,,,,4,4,0,2.8,3,-2,0,0,0,.5,1,0,0,.5,1,.75,2,0,6,6,2,2,4,4,4,4,0,3.84375,4,2,4,4,4,4,0,4,2,3.84375,.54097944,3.9113724,3.7761276,1.9375,2.0051224,1.8698776,1.90625,4,3.84375,0,2.8,3,4,17,Scenario A,1
8,qaqlmvgh,0,25,24,Static_mechanism_worse_1,Results,2021-10-10 18:02:25.421609,1,72,rdu5yqbr,0,.1,Static_mechanism_worse_1,0,8,72,2,2,2,0,0,0,0,0,0,16,0,0,0,0,0,0,4,32,,0,0,0,,0,14,22,1,1,4,2,2,50,64,72,7.1999998,8,,,,8,17.200001,0,0,,,4,4,6,1,0,1,4,1,0,12,8,,,,,,2,0,2,1,1,8,4,4,,,,6,,8,3,,32,1,1,1,1,1,1,1,1,1,1,1,34,5,3.6400001,By looking for the largest amount with profit,Randomly,17,1,1,1010,3,0,2,,,,2,4,0,0,0,,,,,,4,4,0,2.8,3,1,16,1,1,1.5,2,1,1,1.5,2,1.75,14,0,0,10,2,2,4,4,4,4,0,3.84375,4,2,4,4,4,4,0,4,2,3.84375,.54097944,3.9113724,3.7761276,1.9375,2.0051224,1.8698776,1.90625,4,3.84375,0,2.8,3,4,18,Scenario A,1
3,tkxj87it,0,25,24,Static_mechanism_worse_1,Results,2021-10-10 18:01:16.954474,1,60,rdu5yqbr,0,.1,Static_mechanism_worse_1,0,3,60,2,2,2,0,0,0,0,0,0,2,0,0,0,0,0,0,4,4,,0,0,0,,0,0,10,1,1,4,2,2,50,50,60,6,10,,,,1,16,0,0,,,4,4,6,0,0,1,4,1,0,12,8,,,,,,0,0,0,0,1,4,0,4,,,,3,,5,4,,3,0,0,1,1,1,0,1,0,0,1,0,18,9,3,gut feeling ,gut feeling ,12,1,1,1010,3,0,2,,,,2,4,0,0,0,,,,,,4,4,0,2.8,3,2,1,1,1,2,1.5,1,1,2,1.5,1.75,0,0,3,5,2,2,4,4,4,4,0,3.84375,4,2,4,4,4,4,0,4,2,3.84375,.54097944,3.9113724,3.7761276,1.9375,2.0051224,1.8698776,1.90625,4,3.84375,0,2.8,3,4,17,Scenario A,1
6,ixrs4zpf,0,25,24,Static_mechanism_worse_1,Results,2021-09-13 19:14:24.237874,1,87,z3juhl9y,0,.1,Static_mechanism_worse_1,0,6,87,2,2,4,0,1,0,0,0,0,32,0,0,0,0,1,0,8,64,,0,0,0,,2,30,37,1,1,4,2,2,52,82,87,8.6999998,5,,,,8,19,0,0,,,4,4,4,0,1,0,6,1,1,8,12,,,,,,0,2,2,1,1,8,4,4,,,,6,,6,8,,64,1,1,1,1,0,0,0,1,1,0,1,36,10,3.5,I bid as high as possible,I bid as high as possible,6,1,1,913,3,,2,,,,2,4,0,0,0,,,,,,4,4,0,2.8,3,4,32,1,1,2,2,1,1,2,2,2,32,0,4,6,2,2,4,4,4,4,0,3.84375,4,2,4,4,4,4,0,4,2,3.84375,.54097944,3.9113724,3.7761276,1.9375,2.0051224,1.8698776,1.90625,4,3.84375,0,2.8,3,4,20,Scenario A,1
10,xkbqv4u2,0,25,24,Static_mechanism_worse_1,Results,2021-09-14 17:49:20.928916,1,55,euvcknah,0,.1,Static_mechanism_worse_1,0,10,55,2,2,2,1,0,0,0,0,0,2,1,0,0,0,0,0,4,4,,0,0,0,,0,0,5,1,1,4,2,2,50,50,55,5.5,5,,,,8,15.5,0,0,,,4,4,6,0,0,1,4,1,1,12,8,,,,,,2,0,2,1,1,8,4,4,,,,8,,5,4,,2,1,0,0,0,0,1,1,0,0,1,0,22,5,,,,10,1,1,914,3,,2,,,,2,4,0,0,0,,,,,,4,4,0,2.8,3,2,0,1,0,2,1,1,0,2,1,1.5,0,0,1,4,2,2,4,4,4,4,0,3.84375,4,2,4,4,4,4,0,4,2,3.84375,.54097944,3.9113724,3.7761276,1.9375,2.0051224,1.8698776,1.90625,4,3.84375,0,2.8,3,4,16,Scenario A,1
3,s82myxqp,0,25,24,Static_mechanism_worse_1,Results,2021-09-13 19:13:39.964377,1,64,z3juhl9y,0,.1,Static_mechanism_worse_1,0,3,64,2,2,2,1,0,0,0,0,0,8,0,0,1,0,0,0,4,16,,0,0,0,,0,6,14,0,1,2,0,2,50,56,64,6.4000001,8,,,,7,16,0,0,,,4,4,2,1,0,0,4,1,1,4,8,,,,,,0,0,0,0,1,4,0,4,,,,2,,4,0,,8,1,1,1,1,1,0,0,0,0,0,0,20,9,3.2,The safest given the points i had and the chances i could afford it,most profitable options ,3,1,1,913,3,,2,,,,2,2,0,0,0,,,,,,2,4,0,2.8,3,-2,0,0,0,0,1,0,0,0,1,.5,6,0,5,5,2,2,4,4,4,4,0,3.84375,4,2,2,4,4,4,0,4,2,3.84375,.54097944,3.9113724,3.7761276,1.9375,2.0051224,1.8698776,1.90625,4,3.84375,0,2.8,3,2,17,Scenario A,1
16,t0p553t1,0,25,24,Static_mechanism_worse_1,Results,2021-09-14 17:50:16.676190,1,55,euvcknah,0,.1,Static_mechanism_worse_1,0,16,55,2,2,2,1,0,0,0,0,0,2,1,0,0,0,0,0,4,4,,0,0,0,,0,0,5,1,1,4,2,2,50,50,55,5.5,5,,,,9,15.5,0,0,,,4,4,2,1,0,0,4,1,0,4,8,,,,,,0,0,0,0,1,4,0,4,,,,3,,8,4,,2,1,1,1,1,0,1,1,0,1,1,0,21,8,3.7,Based off highest percentage in chart.,Based off highest percentage in chart.,16,1,1,914,3,,2,,,,2,4,0,0,0,,,,,,4,4,0,2.8,3,2,0,1,0,2,1,1,0,2,1,1.5,0,0,4,8,2,2,4,4,4,4,0,3.84375,4,2,4,4,4,4,0,4,2,3.84375,.54097944,3.9113724,3.7761276,1.9375,2.0051224,1.8698776,1.90625,4,3.84375,0,2.8,3,4,16,Scenario A,1
14,exw6ml00,0,25,24,Static_mechanism_worse_1,Results,2021-09-13 19:16:10.754369,1,66,z3juhl9y,0,.1,Static_mechanism_worse_1,0,14,66,2,2,2,1,0,0,0,0,0,2,1,0,0,0,0,0,4,4,,0,0,0,,0,0,16,1,1,4,2,2,50,50,66,6.5999999,16,,,,1,17,0,0,,,4,4,2,1,0,0,4,1,0,4,8,,,,,,0,0,0,0,1,4,0,4,,,,3,,6,3,,3,1,1,1,1,0,0,0,0,0,0,1,24,10,3.3199999,"I chose the highest number, the one with only 5% because I figured if everyone else went lower, I'd be in the top percentile. ","When the odds were no longer 50/50 for the higher pay out, Option A became the safer bet.",14,1,1,913,3,,2,,,,2,4,0,0,0,,,,,,4,4,0,2.8,3,1,1,1,1,1.5,1.5,1,1,1.5,1.5,1.5,0,0,4,4,2,2,4,4,4,4,0,3.84375,4,2,4,4,4,4,0,4,2,3.84375,.54097944,3.9113724,3.7761276,1.9375,2.0051224,1.8698776,1.90625,4,3.84375,0,2.8,3,4,18,Scenario A,1
9,zqkywrki,0,25,24,Static_mechanism_worse_1,Results,2021-09-14 17:49:13.836985,1,62,euvcknah,0,.1,Static_mechanism_worse_1,0,9,62,2,2,2,1,0,0,0,0,0,4,0,1,0,0,0,0,4,8,,0,0,0,,0,2,12,1,1,4,2,2,50,52,62,6.1999998,10,,,,1,16.200001,0,0,,,4,4,4,0,1,0,4,1,1,8,8,,,,,,0,0,0,1,1,8,4,4,,,,7,,6,3,,6,0,1,0,0,1,1,0,0,1,0,0,21,8,3.0999999,I kept in mind that even if my  number higher i would still get the item,Randomly choose,9,1,1,914,3,,2,,,,2,4,0,0,0,,,,,,4,4,0,2.8,3,1,2,1,1,1.5,1.5,1,1,1.5,1.5,1.5,2,0,1,4,2,2,4,4,4,4,0,3.84375,4,2,4,4,4,4,0,4,2,3.84375,.54097944,3.9113724,3.7761276,1.9375,2.0051224,1.8698776,1.90625,4,3.84375,0,2.8,3,4,17,Scenario A,1
11,63qt1nug,0,25,24,Static_mechanism_worse_1,Results,2021-09-26 17:44:35.254609,1,88,t8zrstny,0,.1,Static_mechanism_worse_1,0,11,88,2,2,2,1,0,0,0,0,0,32,0,0,0,0,1,0,4,64,,0,0,0,,0,30,38,1,1,4,2,2,50,80,88,8.8000002,8,,,,8,18.799999,0,0,,,4,4,6,0,1,1,4,1,0,12,8,,,,,,2,0,2,1,0,4,4,0,,,,4,,3,2,,26,1,1,1,1,1,1,0,0,0,0,1,22,5,3.3,I put my bid near the true value price.,I only went with option B when the chances to get 16 was 60% or higher,25,1,1,926,3,0,2,,,,2,4,0,0,0,,,,,,4,4,0,2.8,3,0,-6,0,0,1,.8125,0,0,1,.8125,.90625,30,0,6,6,2,2,4,4,4,4,0,3.84375,4,2,4,4,4,4,0,4,2,3.84375,.54097944,3.9113724,3.7761276,1.9375,2.0051224,1.8698776,1.90625,4,3.84375,0,2.8,3,4,19,Scenario A,1
12,hs97iud1,0,25,24,Static_mechanism_worse_1,Results,2021-09-13 19:15:42.059623,1,55,z3juhl9y,0,.1,Static_mechanism_worse_1,0,12,55,2,2,2,1,0,0,0,0,0,2,1,0,0,0,0,0,4,4,,0,0,0,,0,0,5,1,0,2,2,0,50,50,55,5.5,5,,,,8,16,0,0,,,4,4,6,0,0,1,6,0,1,12,12,,,,,,2,2,4,1,1,8,4,4,,,,5,,5,2,,1,1,1,1,1,0,0,0,0,1,0,1,22,2,2.97,My value of the item is what I stuck with.,"I choose lower of my value because I believed with the implementation of the higher bids, the secret would have raised above my value therefore I found it irrelevant to bid higher, but on the off chance it was lower I would have been rewarded.",12,1,1,913,3,,2,,,,0,2,0,0,0,,,,,,2,4,0,2.8,3,0,-1,0,0,1,.5,0,0,1,.5,.75,0,0,4,5,2,2,4,4,4,4,0,3.84375,4,2,2,4,4,4,0,4,2,3.84375,.54097944,3.9113724,3.7761276,1.9375,2.0051224,1.8698776,1.90625,4,3.84375,0,2.8,3,2,17,Scenario A,1
16,kzacgs7r,0,25,24,Static_mechanism_worse_1,Results,2021-10-10 19:12:17.843784,1,90,rdu5yqbr,0,.1,Static_mechanism_worse_1,0,16,90,2,2,4,0,0,0,0,0,0,32,0,0,0,0,0,0,8,64,,0,0,0,,2,30,40,1,1,4,2,2,52,82,90,9,8,,,,10,19,0,0,,,4,4,6,0,0,1,6,0,1,12,12,,,,,,2,2,4,1,1,8,4,4,,,,8,,9,7,,53,0,0,0,1,1,1,1,1,1,1,1,29,9,3.5999999,I don't remember,I chose the higher odds/ equal odds towards the middle.,25,1,1,1010,3,0,2,,,,2,4,0,0,0,,,,,,4,4,0,2.8,3,3,21,1,1,1.75,1.65625,1,1,1.75,1.65625,1.703125,32,0,0,7,2,2,4,4,4,4,0,3.84375,4,2,4,4,4,4,0,4,2,3.84375,.54097944,3.9113724,3.7761276,1.9375,2.0051224,1.8698776,1.90625,4,3.84375,0,2.8,3,4,20,Scenario A,1
4,5ky5bsvz,0,25,24,Static_mechanism_worse_1,Results,2021-09-26 16:47:18.864890,1,64,t8zrstny,0,.1,Static_mechanism_worse_1,0,4,64,2,2,4,0,1,0,0,0,0,4,0,1,0,0,0,0,8,8,,0,0,0,,2,2,14,1,1,4,2,2,52,54,64,6.4000001,10,,,,1,16.4,0,0,,,4,4,6,1,0,1,4,1,0,12,8,,,,,,2,0,2,1,1,8,4,4,,,,8,,7,7,,5,1,1,1,1,1,0,0,0,0,0,0,21,7,3.6099999,I bid the highest number so I was most likely to get more points.,I bid the highest number so I was most likely to get more points.,20,1,1,926,3,0,2,,,,2,4,0,0,0,,,,,,4,4,0,2.8,3,3,1,1,1,1.75,1.25,1,1,1.75,1.25,1.5,4,0,5,5,2,2,4,4,4,4,0,3.84375,4,2,4,4,4,4,0,4,2,3.84375,.54097944,3.9113724,3.7761276,1.9375,2.0051224,1.8698776,1.90625,4,3.84375,0,2.8,3,4,17,Scenario A,1
10,bhs1p29v,0,25,24,Static_mechanism_worse_1,Results,2021-09-13 19:15:13.917280,1,64,z3juhl9y,0,.1,Static_mechanism_worse_1,0,10,64,2,2,4,0,1,0,0,0,0,4,0,1,0,0,0,0,8,8,,0,0,0,,2,2,14,1,1,4,2,2,52,54,64,6.4000001,10,,,,5,16,0,0,,,4,4,4,0,1,0,6,0,1,8,12,,,,,,0,2,2,1,1,8,4,4,,,,5,,12,6,,6,1,1,1,1,1,1,1,0,0,0,1,21,7,3.72,Probability,Probability,10,1,1,913,3,,2,,,,2,4,0,0,0,,,,,,4,4,0,2.8,3,2,2,1,1,1.5,1.5,1,1,1.5,1.5,1.5,4,0,7,7,2,2,4,4,4,4,0,3.84375,4,2,4,4,4,4,0,4,2,3.84375,.54097944,3.9113724,3.7761276,1.9375,2.0051224,1.8698776,1.90625,4,3.84375,0,2.8,3,4,17,Scenario A,1
8,mqskxljr,0,25,24,Static_mechanism_worse_1,Results,2021-09-13 19:14:47.569081,1,57,z3juhl9y,0,.1,Static_mechanism_worse_1,0,8,57,2,2,4,0,1,0,0,0,0,2,1,0,0,0,0,0,8,4,,0,0,0,,2,0,7,1,1,4,2,2,52,52,57,5.6999998,5,,,,10,16,0,0,,,4,4,2,1,0,0,4,1,0,4,8,,,,,,0,0,0,0,1,4,0,4,,,,2,,6,2,,2,1,1,1,1,0,0,0,1,0,0,0,20,8,3.3399999,I thought about the numbers and chose the most logical choice ,I thought about the statistical probability of each answer and guessed accordingly,8,1,1,913,3,,2,,,,2,4,0,0,0,,,,,,4,4,0,2.8,3,-2,0,0,0,.5,1,0,0,.5,1,.75,2,0,4,5,2,2,4,4,4,4,0,3.84375,4,2,4,4,4,4,0,4,2,3.84375,.54097944,3.9113724,3.7761276,1.9375,2.0051224,1.8698776,1.90625,4,3.84375,0,2.8,3,4,17,Scenario A,1
19,ptw8qa0a,0,25,24,Static_mechanism_worse_1,Results,2021-09-13 19:17:20.777496,1,57,z3juhl9y,0,.1,Static_mechanism_worse_1,0,19,57,2,2,4,0,1,0,0,0,0,2,1,0,0,0,0,0,8,4,,0,0,0,,2,0,7,1,0,2,2,0,52,52,57,5.6999998,5,,,,7,16,0,0,,,4,4,2,1,0,0,6,0,1,4,12,,,,,,0,2,2,0,1,4,0,4,,,,3,,9,3,,1,1,1,1,1,0,1,0,0,1,0,0,21,5,3.3,"i was thinking that if i chose i higher number, i would be able to get some extra points by only paying the secret price.",I was thinking that a big win or a big loss is too risky. I would much rather the points be closer together with different probabilities rather than a a giant point difference.,19,1,1,913,3,,2,,,,0,2,0,0,0,,,,,,2,4,0,2.8,3,-1,-1,0,0,.75,.5,0,0,.75,.5,.625,2,0,4,6,2,2,4,4,4,4,0,3.84375,4,2,2,4,4,4,0,4,2,3.84375,.54097944,3.9113724,3.7761276,1.9375,2.0051224,1.8698776,1.90625,4,3.84375,0,2.8,3,2,17,Scenario A,1
12,nxca8e87,0,25,24,Static_mechanism_worse_1,Results,2021-09-14 17:49:39.486517,1,60,euvcknah,0,.1,Static_mechanism_worse_1,0,12,60,2,2,4,0,1,0,0,0,0,2,1,0,0,0,0,0,8,4,,0,0,0,,2,0,10,1,1,4,2,2,52,52,60,6,8,,,,7,16,0,0,,,4,4,6,0,0,1,4,1,0,12,8,,,,,,2,0,2,1,0,4,4,0,,,,8,,3,5,,3,0,0,0,1,1,1,1,1,1,1,0,21,2,3.5,Randomly,As the probability increased I choose the more profitable option,12,1,1,914,3,,2,,,,2,4,0,0,0,,,,,,4,4,0,2.8,3,1,1,1,1,1.25,1.5,1,1,1.25,1.5,1.375,2,0,0,7,2,2,4,4,4,4,0,3.84375,4,2,4,4,4,4,0,4,2,3.84375,.54097944,3.9113724,3.7761276,1.9375,2.0051224,1.8698776,1.90625,4,3.84375,0,2.8,3,4,17,Scenario A,1
1,x3z3vzhh,0,25,24,Static_mechanism_worse_1,Results,2021-10-10 18:00:51.283224,1,66,rdu5yqbr,0,.1,Static_mechanism_worse_1,0,1,66,2,2,2,0,0,0,0,0,0,2,0,0,0,0,0,0,4,4,,0,0,0,,0,0,16,1,1,4,2,2,50,50,66,6.5999999,16,,,,4,16.6,0,0,,,4,4,6,0,1,1,6,0,1,12,12,,,,,,2,2,4,1,1,8,4,4,,,,6,,5,3,,4,1,0,0,1,0,0,1,0,1,1,1,24,3,,,,10,1,1,1010,3,1,2,,,,2,4,0,0,0,,,,,,4,4,0,2.8,3,1,2,1,1,1.5,2,1,1,1.5,2,1.75,0,0,1,5,2,2,4,4,4,4,0,3.84375,4,2,4,4,4,4,0,4,2,3.84375,.54097944,3.9113724,3.7761276,1.9375,2.0051224,1.8698776,1.90625,4,3.84375,0,2.8,3,4,17,Scenario A,1
5,h0fgvzuv,0,25,24,Static_mechanism_worse_1,Results,2021-09-13 19:14:12.182699,1,68,z3juhl9y,0,.1,Static_mechanism_worse_1,0,5,68,2,2,4,0,1,0,0,0,0,8,0,0,1,0,0,0,8,16,,0,0,0,,2,6,18,1,1,4,2,2,52,58,68,6.8000002,10,,,,4,17,0,0,,,4,4,6,0,0,1,4,1,0,12,8,,,,,,2,0,2,1,1,8,4,4,,,,6,,4,4,,8,1,1,1,1,1,0,0,0,0,0,1,23,2,3.54,always tried used the true value,Accepted only 50% chance of higher to get 16,5,1,1,913,3,,2,,,,2,4,0,0,0,,,,,,4,4,0,2.8,3,0,0,0,0,1,1,0,0,1,1,1,8,0,5,5,2,2,4,4,4,4,0,3.84375,4,2,4,4,4,4,0,4,2,3.84375,.54097944,3.9113724,3.7761276,1.9375,2.0051224,1.8698776,1.90625,4,3.84375,0,2.8,3,4,18,Scenario A,1
1,hpy7uuhi,0,25,24,Static_mechanism_worse_1,Results,2021-09-14 17:47:53.966670,1,60,euvcknah,0,.1,Static_mechanism_worse_1,0,1,60,2,2,2,1,0,0,0,0,0,2,1,0,0,0,0,0,4,4,,0,0,0,,0,0,10,1,1,4,2,2,50,50,60,6,10,,,,5,16,0,0,,,4,4,6,0,0,1,6,0,1,12,12,,,,,,2,2,4,1,1,8,4,4,,,,6,,12,2,,2,1,1,1,1,1,1,1,0,0,0,0,20,2,3.05,I based my decisions by the value and not giving up more than what I had.,I based my decisions on the amount of points I would be risking.,1,1,1,914,3,,2,,,,2,4,0,0,0,,,,,,4,4,0,2.8,3,0,0,0,0,1,1,0,0,1,1,1,0,0,7,7,2,2,4,4,4,4,0,3.84375,4,2,4,4,4,4,0,4,2,3.84375,.54097944,3.9113724,3.7761276,1.9375,2.0051224,1.8698776,1.90625,4,3.84375,0,2.8,3,4,17,Scenario A,1
16,qvejvzdg,0,25,24,Static_mechanism_worse_1,Results,2021-09-13 19:16:43.558600,1,60,z3juhl9y,0,.1,Static_mechanism_worse_1,0,16,60,2,2,4,0,1,0,0,0,0,2,1,0,0,0,0,0,8,4,,0,0,0,,2,0,10,1,1,4,2,2,52,52,60,6,8,,,,7,16,0,0,,,4,4,2,1,0,0,6,1,1,4,12,,,,,,0,2,2,0,1,4,0,4,,,,1,,4,6,,3,1,1,1,1,1,0,0,0,0,0,0,20,9,2.8099999,I take a chance on my bid.,Same as the first period.,16,1,1,913,3,,2,,,,2,4,0,0,0,,,,,,4,4,0,2.8,3,2,1,1,1,1.5,1.5,1,1,1.5,1.5,1.5,2,0,5,5,2,2,4,4,4,4,0,3.84375,4,2,4,4,4,4,0,4,2,3.84375,.54097944,3.9113724,3.7761276,1.9375,2.0051224,1.8698776,1.90625,4,3.84375,0,2.8,3,4,17,Scenario A,1
4,2kpdlt9g,0,25,24,Static_mechanism_worse_1,Results,2021-09-14 17:48:27.526759,1,62,euvcknah,0,.1,Static_mechanism_worse_1,0,4,62,2,2,4,0,1,0,0,0,0,4,0,1,0,0,0,0,8,8,,0,0,0,,2,2,12,1,1,4,2,2,52,54,62,6.1999998,8,,,,6,16.200001,0,0,,,4,4,6,0,0,1,4,1,0,12,8,,,,,,2,0,2,1,1,8,4,4,,,,4,,5,2,,4,1,1,1,0,1,0,0,0,0,0,1,19,5,3.4000001,I made it based off the 50/50 most likely leading to the lower points number.,I made it based off the numbers thinking the weight would go higher since higher numbers were in play bringing the average number up.,4,1,1,914,3,,2,,,,2,4,0,0,0,,,,,,4,4,0,2.8,3,-2,0,0,0,.5,1,0,0,.5,1,.75,4,0,3,4,2,2,4,4,4,4,0,3.84375,4,2,4,4,4,4,0,4,2,3.84375,.54097944,3.9113724,3.7761276,1.9375,2.0051224,1.8698776,1.90625,4,3.84375,0,2.8,3,4,17,Scenario A,1
9,zak1r0dx,0,25,24,Static_mechanism_worse_1,Results,2021-09-13 19:15:00.069148,1,60,z3juhl9y,0,.1,Static_mechanism_worse_1,0,9,60,2,2,4,0,1,0,0,0,0,2,1,0,0,0,0,0,8,4,,0,0,0,,2,0,10,1,1,4,2,2,52,52,60,6,8,,,,7,16,0,0,,,4,4,4,0,1,0,4,1,0,8,8,,,,,,0,0,0,1,1,8,4,4,,,,6,,6,4,,2,0,1,0,1,1,0,0,1,0,0,0,33,8,,,,9,1,1,913,3,,2,,,,2,4,0,0,0,,,,,,4,4,0,2.8,3,0,0,0,0,1,1,0,0,1,1,1,2,0,1,4,2,2,4,4,4,4,0,3.84375,4,2,4,4,4,4,0,4,2,3.84375,.54097944,3.9113724,3.7761276,1.9375,2.0051224,1.8698776,1.90625,4,3.84375,0,2.8,3,4,17,Scenario A,1
5,u0w48zrb,0,25,24,Static_mechanism_worse_1,Results,2021-09-26 16:47:44.939293,1,59,t8zrstny,0,.1,Static_mechanism_worse_1,0,5,59,2,2,4,0,1,0,0,0,0,4,0,1,0,0,0,0,8,8,,0,0,0,,2,2,9,1,1,4,2,2,52,54,59,5.9000001,5,,,,6,15.9,0,0,,,4,4,4,0,1,1,6,0,1,8,12,,,,,,0,2,2,1,1,8,4,4,,,,6,,5,4,,5,1,1,1,1,0,0,0,0,0,0,0,25,8,,,,21,1,1,926,3,1,2,,,,2,4,0,0,0,,,,,,4,4,0,2.8,3,0,1,0,1,1,1.25,0,1,1,1.25,1.125,4,0,4,4,2,2,4,4,4,4,0,3.84375,4,2,4,4,4,4,0,4,2,3.84375,.54097944,3.9113724,3.7761276,1.9375,2.0051224,1.8698776,1.90625,4,3.84375,0,2.8,3,4,16,Scenario A,1
13,9oa7gryq,0,25,24,Static_mechanism_worse_1,Results,2021-09-13 19:15:57.270554,1,57,z3juhl9y,0,.1,Static_mechanism_worse_1,0,13,57,2,2,4,0,1,0,0,0,0,2,1,0,0,0,0,0,8,4,,0,0,0,,2,0,7,1,1,4,2,2,52,52,57,5.6999998,5,,,,8,16,0,0,,,4,4,2,1,0,0,4,1,0,4,8,,,,,,0,0,0,0,1,4,0,4,,,,2,,6,2,,2,1,1,1,1,0,0,0,0,0,0,1,21,3,3.79,"I just did what felt would be the most optimal for maximizing the number of points I get, evening out my win and loss chances ","Option B sounded too unlikely for the max points at first, so I went with option A. Once I got to the 50% chances, I went with option B since the max point chance was less of a gamble. ",13,1,1,913,3,,2,,,,2,4,0,0,0,,,,,,4,4,0,2.8,3,-2,0,0,0,.5,1,0,0,.5,1,.75,2,0,4,4,2,2,4,4,4,4,0,3.84375,4,2,4,4,4,4,0,4,2,3.84375,.54097944,3.9113724,3.7761276,1.9375,2.0051224,1.8698776,1.90625,4,3.84375,0,2.8,3,4,17,Scenario A,1
9,f49g3c09,0,25,24,Static_mechanism_worse_1,Results,2021-10-10 18:02:38.327548,1,62,rdu5yqbr,0,.1,Static_mechanism_worse_1,0,9,62,2,2,4,0,0,0,0,0,0,2,0,0,0,0,0,0,8,4,,0,0,0,,2,0,12,1,1,4,2,2,52,52,62,6.1999998,10,,,,5,16.200001,0,0,,,4,4,4,1,1,0,6,0,1,8,12,,,,,,0,2,2,1,1,8,4,4,,,,7,,12,7,,4,1,1,1,1,1,0,0,0,0,0,0,18,5,3.3,I made it using the chances of getting a higher price that the secret price. I always tried to choose something that has higher value that the highest value of secret price so that way I can get the item.,"I chose it based on the points I get. First few had high chances for 5 or eight and less for 10 and 16 points. I chose the option with 10 and 8 because 8 is greater that 5 and I can get more points like that even if its no the highest. For the second half, I chose the one with 16 because it is higher than 10 and also had higher chances of being correct value.",18,1,1,1010,3,0,2,,,,2,4,0,0,0,,,,,,4,4,0,2.8,3,3,2,1,1,1.75,2,1,1,1.75,2,1.875,2,0,5,5,2,2,4,4,4,4,0,3.84375,4,2,4,4,4,4,0,4,2,3.84375,.54097944,3.9113724,3.7761276,1.9375,2.0051224,1.8698776,1.90625,4,3.84375,0,2.8,3,4,17,Scenario A,1
6,zeralvf3,0,25,24,Static_mechanism_worse_1,Results,2021-09-26 16:48:04.199565,1,66,t8zrstny,0,.1,Static_mechanism_worse_1,0,6,66,2,2,2,1,0,0,0,0,0,8,0,0,1,0,0,0,4,16,,0,0,0,,0,6,16,1,1,4,2,2,50,56,66,6.5999999,10,,,,5,16.6,0,0,,,4,4,4,0,1,0,6,0,1,8,12,,,,,,0,2,2,1,1,8,4,4,,,,8,,10,3,,10,0,0,0,1,1,1,0,0,0,0,1,18,2,3.5,"I was going off of probability, but then I realized that it was a near guarantee the entire time, so the last one was where I actually began to profit",I had reverted back to probability and played it marginally safe.,22,1,1,926,3,0,2,,,,2,4,0,0,0,,,,,,4,4,0,2.8,3,1,2,1,1,1.5,1.25,1,1,1.5,1.25,1.375,6,0,3,3,2,2,4,4,4,4,0,3.84375,4,2,4,4,4,4,0,4,2,3.84375,.54097944,3.9113724,3.7761276,1.9375,2.0051224,1.8698776,1.90625,4,3.84375,0,2.8,3,4,17,Scenario A,1
15,xxiybox6,0,25,24,Static_mechanism_worse_1,Results,2021-10-10 19:12:03.047623,1,66,rdu5yqbr,0,.1,Static_mechanism_worse_1,0,15,66,2,2,4,0,0,0,0,0,0,8,0,0,0,0,0,0,8,16,,0,0,0,,2,6,16,1,1,4,2,2,52,58,66,6.5999999,8,,,,6,16.6,0,0,,,4,4,6,0,0,1,4,1,0,12,8,,,,,,2,0,2,1,1,8,4,4,,,,7,,6,5,,5,1,0,1,0,1,0,1,0,0,1,0,19,8,3.75,"Based on how likely the outcome is, based on the statistical chance","Based on how likely the outcome is, based on the statistical chance",24,1,1,1010,3,0,2,,,,2,4,0,0,0,,,,,,4,4,0,2.8,3,1,-3,1,0,1.25,.625,1,0,1.25,.625,.9375,8,0,1,5,2,2,4,4,4,4,0,3.84375,4,2,4,4,4,4,0,4,2,3.84375,.54097944,3.9113724,3.7761276,1.9375,2.0051224,1.8698776,1.90625,4,3.84375,0,2.8,3,4,17,Scenario A,1
1,y9jj1p01,0,25,24,Static_mechanism_worse_1,Results,2021-09-26 16:46:21.030596,1,66,t8zrstny,0,.1,Static_mechanism_worse_1,0,1,66,2,2,2,1,0,0,0,0,0,2,1,0,0,0,0,0,4,4,,0,0,0,,0,0,16,0,1,2,0,2,50,50,66,6.5999999,16,,,,4,16.6,0,0,,,4,4,6,0,1,1,4,1,0,12,8,,,,,,2,0,2,1,1,8,4,4,,,,6,,5,1,,2,1,0,1,1,0,1,0,0,1,1,1,24,5,,the higher the probability the better are the chances.,the higher the probability the better are the chances.,17,1,1,926,3,1,2,,,,2,2,0,0,0,,,,,,2,4,0,2.8,3,-1,0,0,0,.5,1,0,0,.5,1,.75,0,0,1,6,2,2,4,4,4,4,0,3.84375,4,2,2,4,4,4,0,4,2,3.84375,.54097944,3.9113724,3.7761276,1.9375,2.0051224,1.8698776,1.90625,4,3.84375,0,2.8,3,2,17,Scenario A,1
14,ln745kkb,0,25,24,Static_mechanism_worse_1,Results,2021-10-10 19:11:52.444069,1,70,rdu5yqbr,0,.1,Static_mechanism_worse_1,0,14,70,2,2,4,0,0,0,0,0,0,4,0,0,0,0,0,0,8,8,,0,0,0,,2,2,20,1,1,4,2,2,52,54,70,7,16,,,,4,17,0,0,,,4,4,6,0,1,1,6,0,1,12,12,,,,,,2,2,4,1,1,8,4,4,,,,6,,7,6,,7,1,1,1,1,0,0,0,0,0,0,0,19,8,3.5,I made my decision because I knew that if I would wage higher numbers than I would be able to buy the item and not lose points.,"I made the decision because the wage had to be higher than the secret value in order to get points, so I had to big high.",23,1,1,1010,3,0,2,,,,2,4,0,0,0,,,,,,4,4,0,2.8,3,2,3,1,1,1.5,1.75,1,1,1.5,1.75,1.625,4,0,4,4,2,2,4,4,4,4,0,3.84375,4,2,4,4,4,4,0,4,2,3.84375,.54097944,3.9113724,3.7761276,1.9375,2.0051224,1.8698776,1.90625,4,3.84375,0,2.8,3,4,18,Scenario A,1
2,6jzq3ofk,0,25,24,Static_mechanism_worse_1,Results,2021-09-26 16:46:39.626380,1,60,t8zrstny,0,.1,Static_mechanism_worse_1,0,2,60,2,2,4,0,1,0,0,0,0,2,1,0,0,0,0,0,8,4,,0,0,0,,2,0,10,1,1,4,2,2,52,52,60,6,8,,,,9,16,0,0,,,4,4,2,1,0,1,6,0,1,4,12,,,,,,0,2,2,0,1,4,0,4,,,,3,,10,7,,4,1,1,1,1,1,1,0,0,0,0,1,20,5,,,,18,1,1,926,3,0,2,,,,2,4,0,0,0,,,,,,4,4,0,2.8,3,3,2,1,1,1.75,2,1,1,1.75,2,1.875,2,0,6,6,2,2,4,4,4,4,0,3.84375,4,2,4,4,4,4,0,4,2,3.84375,.54097944,3.9113724,3.7761276,1.9375,2.0051224,1.8698776,1.90625,4,3.84375,0,2.8,3,4,17,Scenario A,1
22,ctsu6dp7,0,25,24,Static_mechanism_worse_1,Results,2021-09-13 19:17:59.746583,1,60,z3juhl9y,0,.1,Static_mechanism_worse_1,0,22,60,2,2,2,1,0,0,0,0,0,2,1,0,0,0,0,0,4,4,,0,0,0,,0,0,10,1,1,4,2,2,50,50,60,6,10,,,,4,16,0,0,,,4,4,4,0,1,0,6,1,1,8,12,,,,,,0,2,2,1,1,8,4,4,,,,5,,5,4,,2,1,1,1,1,1,1,1,0,0,0,1,25,10,3.9200001,"I looked at the pie chart and anticipated that how likely the machine would set a secret price. Then, when I received the true value I had, I decided to bid higher that it a little bit more.","Similar to the first, I looked at the pie chart and anticipated the price. Then, I found that the true value is pretty low, so I did not bid more than the true value I had.",22,1,1,913,3,,2,,,,2,4,0,0,0,,,,,,4,4,0,2.8,3,2,0,1,0,2,1,1,0,2,1,1.5,0,0,7,7,2,2,4,4,4,4,0,3.84375,4,2,4,4,4,4,0,4,2,3.84375,.54097944,3.9113724,3.7761276,1.9375,2.0051224,1.8698776,1.90625,4,3.84375,0,2.8,3,4,17,Scenario A,1
9,cm1auesb,0,24,24,Static_mechanism_worse_1,Results,2021-09-26 17:43:21.445210,1,74,t8zrstny,0,.1,Static_mechanism_worse_1,0,9,74,2,2,4,0,1,0,0,0,0,16,0,0,0,1,0,0,8,32,,0,0,0,,2,14,24,1,1,4,2,2,52,66,74,7.4000001,8,,,,10,17.4,0,0,,,4,4,4,0,1,0,4,1,0,8,8,,,,,,0,0,0,1,1,8,4,4,,,,4,,6,8,,32,1,1,1,1,1,0,0,0,0,0,1,21,7,3,Making the maximum bid as its always going be over or equal to the robot seller's price.,Keeping my decission. ,22,1,1,926,3,0,2,,,,2,4,0,0,0,,,,,,4,4,0,2.8,3,4,16,1,1,2,2,1,1,2,2,2,16,0,5,5,2,2,4,4,4,4,0,3.84375,4,2,4,4,4,4,0,4,2,3.84375,.54097944,3.9113724,3.7761276,1.9375,2.0051224,1.8698776,1.90625,4,3.84375,0,2.8,3,4,18,Scenario A,1
3,ir2uxuwq,0,37,36,Non_clairvoyant_dynamic_worse_2,Results,2021-09-27 16:40:11.922289,1,60,gxarmrj0,0,.1,Non_clairvoyant_dynamic_worse_2,0,3,60,2,2,2,1,0,0,0,0,0,2,1,0,0,0,0,0,4,4,0,2,1,0,0,0,0,10,1,1,4,2,2,50,50,60,6,10,1,1,1,1,16,0,0,1,0,4,4,2,1,1,0,6,0,1,4,12,2,3,1,1,4,0,2,2,0,1,7,0,7,0,1,1,3,1,6,2,1,4,1,1,1,1,1,0,0,0,0,0,1,25,10,,,,3,1,1,927,2,1,3,2,2,0,2,4,1,2,2,2,2,4,2,2,4,3.5,0,2.8,3,0,2,0,1,1,2,1,0,2,1,1.5,0,1,5,5,1,2.5,3.5,3,2,4,2,3.2142856,5,0,,3,2,4,2,5,0,2.90625,1.3997591,3.0812199,2.7312801,.90625,1.0812199,.73128009,2,3.5,3.171875,0,2.8,3,,17,Scenario B,0
9,tgmotfw1,0,37,36,Non_clairvoyant_dynamic_worse_2,Results,2021-10-17 16:10:26.666422,1,75,35hy502h,0,.1,Non_clairvoyant_dynamic_worse_2,0,9,75,2,2,8,0,0,0,0,0,0,4,0,0,0,0,0,0,16,8,0,3,0,0,0,8,1,25,1,1,3,0,3,58,59,75,7.5,16,1,1,1,3,17.5,0,0,1,0,4,4,4,1,1,0,6,0,1,8,12,1,4,0,1,4,4,0,4,1,,0,0,0,1,0,0,4,0,,10,1,4,1,1,0,1,0,0,0,1,0,0,1,20,2,3.0999999,I tried to use reasoning and mind games to try to beat the seller.,I tried to apply the decisions to a real life lottery and what I would do in real life.,4,1,1,1017,2,0,3,3,3,0,3,3,1,0,3,3,3,3,3,3,3,3.5,0,2.8,3,2,0,1,0,1.25,1,0,1,1,1.25,1.125,9,1,2,4,1,2.5,3.5,3,2,4,2,3.2142856,5,0,,3,2,4,2,5,0,2.90625,1.3997591,3.0812199,2.7312801,.90625,1.0812199,.73128009,2,3.5,3.171875,0,2.8,3,,18,Scenario B,0
7,exmcchoz,0,37,36,Non_clairvoyant_dynamic_worse_2,Results,2021-10-17 16:10:11.479342,1,62,35hy502h,0,.1,Non_clairvoyant_dynamic_worse_2,0,7,62,2,2,2,0,0,0,0,0,0,4,0,0,0,0,0,0,4,8,3,0,1,1,2,0,2,12,0,1,2,0,2,50,52,62,6.1999998,10,0,1,1,1,16.200001,0,0,1,0,4,4,6,0,0,1,6,0,1,12,12,1,4,1,0,1,2,1,3,1,1,9,4,5,1,1,1,4,1,4,0,1,4,1,1,1,1,1,1,0,0,0,0,1,23,1,,"In the first period I saw that my value was 2, the lowest amount, so I did not bid because I knew I would not be able to earn points unless the secret price was 1 or 0.  If my value was a high number, like 16, I would have bid 16 points since there would have been a good chance of the secret price being less than 16 and I could have earned a lot of points.","In the second period, since the membership fee was 0, I saw that my value was 4 and decided to bid less than 4 points so that I would earn at least 1 point if the price was low. I did not bid higher than my value because that would definitely lose me points.",2,1,1,1017,2,0,3,0,0,2,2,2,0,2,2,2,2,4,0,2,2,3.5,0,2.8,3,-2,0,0,0,0,1,0,0,1,0,.5,2,1,6,6,1,2.5,3.5,3,2,4,2,3.2142856,5,0,,3,2,4,2,5,0,2.90625,1.3997591,3.0812199,2.7312801,.90625,1.0812199,.73128009,2,3.5,3.171875,0,2.8,3,,17,Scenario B,0
12,qcreueyf,0,37,36,Non_clairvoyant_dynamic_worse_2,Results,2021-09-14 19:15:24.402239,1,58,e5rgxdkc,0,.1,Non_clairvoyant_dynamic_worse_2,0,12,58,2,2,2,1,0,0,0,0,0,4,0,1,0,0,0,0,4,8,0,3,0,0,0,2,1,8,1,1,3,0,3,52,53,58,5.8000002,5,1,1,1,9,15.8,0,0,1,0,4,4,2,1,0,0,6,0,1,4,12,2,3,0,1,4,2,2,4,1,1,7,0,7,0,1,1,3,1,8,3,1,6,1,1,1,1,0,0,0,0,0,0,0,21,10,3.21,"In the first period, I made my decisions based on how much of a chance I had to earn a higher number of points.",My decision making process in the second period is pretty much the same as before except that I took the membership fee into consideration this time.,12,1,1,914,2,,3,3,3,0,3,3,1,0,2,2,2,2,3,2,2,3.5,0,2.8,3,1,2,1,1,1.5,1.5,1,1,1.5,1.5,1.5,3,1,4,4,1,2.5,3.5,3,2,4,2,3.2142856,5,0,,3,2,4,2,5,0,2.90625,1.3997591,3.0812199,2.7312801,.90625,1.0812199,.73128009,2,3.5,3.171875,0,2.8,3,,16,Scenario B,0
19,8a6kde8e,0,37,36,Non_clairvoyant_dynamic_worse_2,Results,2021-09-27 16:42:18.882368,1,71,gxarmrj0,0,.1,Non_clairvoyant_dynamic_worse_2,0,19,71,2,2,8,0,0,1,0,0,0,2,1,0,0,0,0,0,16,4,0,3,1,0,0,6,-1,21,1,1,5,2,3,56,55,71,7.0999999,16,1,1,1,2,17.1,0,0,1,0,4,4,6,0,0,1,6,0,1,12,12,1,4,0,0,1,6,1,7,1,1,5,0,5,1,1,1,4,1,4,6,1,2,0,1,1,0,0,1,1,0,1,0,0,18,9,,,,19,1,1,927,2,0,3,3,3,0,3,5,1,2,3,3,3,5,3,3,5,3.5,0,2.8,3,-2,0,0,0,.75,1,0,0,1,.75,.875,5,1,2,5,1,2.5,3.5,3,2,4,2,3.2142856,5,0,,3,2,4,2,5,0,2.90625,1.3997591,3.0812199,2.7312801,.90625,1.0812199,.73128009,2,3.5,3.171875,0,2.8,3,,18,Scenario B,0
11,wktkopuj,0,37,36,Non_clairvoyant_dynamic_worse_2,Results,2021-09-14 19:15:14.318195,1,62,e5rgxdkc,0,.1,Non_clairvoyant_dynamic_worse_2,0,11,62,2,2,4,0,1,0,0,0,0,2,1,0,0,0,0,0,8,4,0,3,1,1,2,2,0,12,1,1,7,2,5,52,52,62,6.1999998,10,1,1,1,5,16.200001,0,0,1,0,4,4,4,0,1,0,4,1,0,8,8,0,5,0,1,4,4,0,4,1,1,9,0,9,1,1,1,8,1,6,6,1,3,1,1,1,1,1,0,0,0,0,0,1,23,3,,I tried to make higher bid to get the item,i entered the market and tried my luck,11,1,1,914,2,,3,0,0,2,2,4,0,2,3,3,2,4,3,2,4,3.5,0,2.8,3,2,1,1,1,1.5,1.5,1,1,1.5,1.5,1.5,2,1,5,5,1,2.5,3.5,3,2,4,2,3.2142856,5,0,,3,2,4,2,5,0,2.90625,1.3997591,3.0812199,2.7312801,.90625,1.0812199,.73128009,2,3.5,3.171875,0,2.8,3,,17,Scenario B,0
13,5kopi4kh,0,37,36,Non_clairvoyant_dynamic_worse_2,Results,2021-09-14 19:15:31.721116,1,66,e5rgxdkc,0,.1,Non_clairvoyant_dynamic_worse_2,0,13,66,2,2,4,0,1,0,0,0,0,4,0,1,0,0,0,0,8,8,0,3,0,1,2,4,2,16,1,1,5,0,5,54,56,66,6.5999999,10,1,1,1,5,16.6,0,0,1,0,4,4,2,1,0,0,6,0,1,4,12,1,4,1,0,1,-2,1,-1,1,1,9,4,5,1,1,1,4,1,4,4,1,4,1,1,1,1,1,1,0,0,0,0,0,19,5,4,i guessed,i guessed,13,1,1,914,2,,3,0,0,2,2,2,0,0,3,3,2,2,3,2,2,3.5,0,2.8,3,0,0,0,0,1,1,0,0,1,1,1,6,1,6,6,1,2.5,3.5,3,2,4,2,3.2142856,5,0,,3,2,4,2,5,0,2.90625,1.3997591,3.0812199,2.7312801,.90625,1.0812199,.73128009,2,3.5,3.171875,0,2.8,3,,17,Scenario B,0
7,55mglaly,0,37,36,Non_clairvoyant_dynamic_worse_2,Results,2021-09-13 17:46:37.552771,1,73,8tt4aoii,0,.1,Non_clairvoyant_dynamic_worse_2,0,7,73,2,2,16,0,0,0,1,0,0,2,1,0,0,0,0,0,32,4,0,3,1,0,0,14,-1,23,1,1,5,2,3,64,63,73,7.3000002,10,1,0,1,1,17.299999,0,0,1,0,4,4,6,0,0,1,6,0,1,12,12,1,4,0,0,1,6,1,7,1,1,5,0,5,1,1,1,4,1,6,8,1,1,1,0,0,0,1,1,1,0,0,0,1,18,5,3.6700001,"In the first period, my decisions where mostly based on chance, but taking the price into account.","In the second period, my decisions were based on the fact that there was a possibility to gain points if I paid the membership price, but I could have lost (which I did).  In this case, it was a gamble to walk away with 3 points, or put them on the line.  I put them on the line, and ended up with -1",7,1,1,913,2,,3,3,3,0,3,5,1,2,3,3,3,5,3,3,5,3.5,0,2.8,3,-8,-1,0,0,.5,.5,0,0,.5,.5,.5,13,1,1,4,1,2.5,3.5,3,2,4,2,3.2142856,5,0,,3,2,4,2,5,0,2.90625,1.3997591,3.0812199,2.7312801,.90625,1.0812199,.73128009,2,3.5,3.171875,0,2.8,3,,18,Scenario B,0
4,lqdm7470,0,37,36,Non_clairvoyant_dynamic_worse_2,Results,2021-09-13 17:45:55.796693,1,56,8tt4aoii,0,.1,Non_clairvoyant_dynamic_worse_2,0,4,56,2,2,4,0,1,0,0,0,0,2,1,0,0,0,0,0,8,4,0,3,1,0,0,2,-1,6,1,1,5,2,3,52,51,56,5.5999999,5,1,1,1,10,15.6,0,0,1,0,4,4,6,0,0,1,6,0,1,12,12,0,5,1,1,4,2,2,4,1,1,13,4,9,1,1,1,6,1,7,8,1,4,1,1,1,1,0,1,0,0,0,0,0,18,1,4,I bid the highest number that was distributed amongst the pool.,"I bid higher than the highest number distributed amongst the pool, in consideration of the membership fee.",4,1,1,913,2,,3,3,3,0,3,5,1,2,3,3,3,5,3,3,5,3.5,0,2.8,3,4,2,1,1,2,2,1,1,2,2,2,1,1,4,5,1,2.5,3.5,3,2,4,2,3.2142856,5,0,,3,2,4,2,5,0,2.90625,1.3997591,3.0812199,2.7312801,.90625,1.0812199,.73128009,2,3.5,3.171875,0,2.8,3,,16,Scenario B,0
1,jq2my08t,0,37,36,Non_clairvoyant_dynamic_worse_2,Results,2021-10-17 16:08:37.904094,1,63,35hy502h,0,.1,Non_clairvoyant_dynamic_worse_2,0,1,63,2,2,4,0,0,0,0,0,0,2,0,0,0,0,0,0,8,4,0,3,0,0,0,4,-1,13,1,1,3,0,3,54,53,63,6.3000002,10,1,1,1,2,16.299999,0,0,1,0,4,4,6,1,0,1,4,1,0,12,8,1,4,0,0,1,6,-1,5,1,1,5,0,5,1,1,1,4,1,6,5,1,2,1,1,0,1,1,0,1,1,0,1,0,18,10,4,"I honestly didn't really understand the periods and the experiment, so I would bid slightly higher than my value because it did not seem like I would lose much.","I used the same logic as I did in the first period, but was more skeptical since in the tutorial I lost -1 point.",21,1,1,1017,2,0,3,3,3,0,3,3,1,0,3,3,3,3,3,3,3,3.5,0,2.8,3,1,0,1,0,1.25,1,0,1,1,1.25,1.125,3,1,2,7,1,2.5,3.5,3,2,4,2,3.2142856,5,0,,3,2,4,2,5,0,2.90625,1.3997591,3.0812199,2.7312801,.90625,1.0812199,.73128009,2,3.5,3.171875,0,2.8,3,,17,Scenario B,0
16,b7w65mfk,0,37,36,Non_clairvoyant_dynamic_worse_2,Results,2021-09-27 16:41:57.114947,1,57,gxarmrj0,0,.1,Non_clairvoyant_dynamic_worse_2,0,16,57,2,2,4,0,1,0,0,0,0,2,1,0,0,0,0,0,8,4,0,3,1,1,2,2,0,7,1,1,7,2,5,52,52,57,5.6999998,5,1,1,1,10,15.7,0,0,1,0,4,4,6,0,1,1,4,1,0,12,8,0,5,1,0,0,2,-1,1,1,1,9,4,5,1,0,1,8,1,3,6,1,2,1,0,1,1,0,1,0,0,1,0,0,20,10,3.1199999,I would always bid higher that the value of the item ,"Bid higher than the value of the item, but lower than the membership fee. ",16,1,1,927,2,0,3,0,0,2,2,4,0,2,3,3,2,4,3,2,4,3.5,0,2.8,3,2,0,1,0,1.5,1,0,1,1,1.5,1.25,2,1,1,5,1,2.5,3.5,3,2,4,2,3.2142856,5,0,,3,2,4,2,5,0,2.90625,1.3997591,3.0812199,2.7312801,.90625,1.0812199,.73128009,2,3.5,3.171875,0,2.8,3,,16,Scenario B,0
