id_in_session,code,_is_bot,_index_in_pages,_max_page_index,_current_app_name,_current_page_name,time_started_utc,visited,participant_code,session_code,is_demo,real_world_currency_per_point,name,participation_fee,id_in_group,payoff,reserve_m_1,reserve_m_2,value_1,value_1_1,value_1_2,value_1_3,value_1_4,value_1_5,value_1_6,value_2,value_2_1,value_2_2,value_2_3,value_2_4,value_2_5,value_2_6,value_1_max,value_2_max,reserve_p_2,upfront_2,random_m_1,random_m_2,reserve_2,profit_1,profit_2,profit,get_1,get_2,revenue,revenue_1,revenue_2,account_1,account_2,account,earn,bonus,getmyerson_1,getmyerson_2,getpost_2,lucky,finalpay,quiz1,quiz2,quiz3,quiz4,p_reserve_m_1,p_reserve_m_2,p_value_1,p_value_1_1,p_value_1_2,p_value_1_3,p_value_2,p_value_2_1,p_value_2_2,p_value_1_max,p_value_2_max,p_reserve_p_2,p_upfront_2,p_random_m_1,p_random_m_2,p_reserve_2,p_profit_1,p_profit_2,p_profit,p_get_1,p_get_2,p_revenue,p_revenue_1,p_revenue_2,p_getmyerson_1,p_getmyerson_2,p_getpost_2,p_bid_1,p_enter_2,p_bid_2,bid_1,enter_2,bid_2,lottery1,lottery2,lottery3,lottery4,lottery5,lottery6,lottery7,lottery8,lottery9,lottery10,survey1,survey2,survey3,survey4,survey5,survey6,surveyid,id_in_subsession,round_number,date,treatment,survey3grad
1,wmo3cmsz,0,37,36,Non_clairvoyant_dynamic,Results,2021-09-13 16:28:42.961932,1,62.0,igdrqddk,0,0.1,Non_clairvoyant_dynamic,0.0,1,62.0,2.0,2.0,4.0,0,1,0,0,0,0,2.0,1,0,0,0,0,0,8.0,4.0,2.0,4.0,0.0,1.0,2.0,4.0,0.0,12.0,1.0,1.0,6.0,0.0,6.0,54.0,54.0,62.0,6.2,8.0,1.0,1.0,1.0,9,16.2,0.0,0.0,1.0,0.0,4.0,4.0,4.0,0,1,0,4.0,1,0,8.0,8.0,1.0,4.0,0.0,1.0,4.0,4.0,0.0,4.0,1.0,1.0,8.0,0.0,8.0,1.0,1.0,1.0,4.0,1.0,5.0,4.0,1.0,2.0,0.0,0.0,0.0,0.0,1.0,1.0,1.0,1.0,1.0,1.0,1.0,22.0,7.0,2.28,Break even,Low bid,1,1,1,0913,1,
2,xjc4w6yi,0,37,36,Non_clairvoyant_dynamic,Results,2021-09-13 16:29:18.101488,1,60.0,igdrqddk,0,0.1,Non_clairvoyant_dynamic,0.0,2,60.0,2.0,2.0,4.0,0,1,0,0,0,0,4.0,0,1,0,0,0,0,8.0,8.0,0.0,6.0,0.0,0.0,0.0,4.0,-2.0,10.0,1.0,1.0,6.0,0.0,6.0,54.0,52.0,60.0,6.0,8.0,1.0,1.0,1.0,10,16.0,0.0,0.0,1.0,0.0,4.0,4.0,6.0,0,0,1,4.0,1,0,12.0,8.0,0.0,5.0,1.0,1.0,4.0,2.0,0.0,2.0,1.0,1.0,13.0,4.0,9.0,1.0,1.0,1.0,6.0,1.0,6.0,7.0,1.0,6.0,1.0,1.0,1.0,1.0,1.0,1.0,1.0,0.0,0.0,0.0,0.0,20.0,9.0,2.6,"I simply bid higher than my value, to ensure I had a chance. The bigger the true value the higher the bid","I simply bid higher than my value, to ensure I had a chance. The bigger the true value the higher the bid",2,1,1,0913,1,
3,f1fxlo40,0,37,36,Non_clairvoyant_dynamic,Results,2021-09-13 16:30:09.319737,1,57.0,igdrqddk,0,0.1,Non_clairvoyant_dynamic,0.0,3,57.0,2.0,2.0,4.0,0,1,0,0,0,0,8.0,0,0,1,0,0,0,8.0,16.0,8.0,2.0,0.0,0.0,8.0,4.0,-2.0,7.0,1.0,0.0,2.0,0.0,2.0,54.0,52.0,57.0,5.7,5.0,1.0,1.0,0.0,9,15.7,0.0,0.0,1.0,0.0,4.0,4.0,4.0,0,1,0,4.0,1,0,8.0,8.0,0.0,5.0,0.0,1.0,4.0,4.0,0.0,4.0,1.0,,0.0,0.0,0.0,1.0,0.0,0.0,5.0,0.0,,2.0,1.0,4.0,0.0,0.0,0.0,0.0,0.0,0.0,0.0,0.0,0.0,0.0,1.0,18.0,2.0,3.1,I thought about it,I thought about it,3,1,1,0913,1,
5,pvy3pm8j,0,37,36,Non_clairvoyant_dynamic,Results,2021-09-13 16:32:01.372702,1,66.0,igdrqddk,0,0.1,Non_clairvoyant_dynamic,0.0,5,66.0,2.0,2.0,2.0,1,0,0,0,0,0,2.0,1,0,0,0,0,0,4.0,4.0,8.0,2.0,1.0,0.0,8.0,0.0,0.0,16.0,1.0,0.0,2.0,2.0,0.0,50.0,50.0,66.0,6.6,16.0,1.0,0.0,0.0,3,16.6,0.0,0.0,1.0,0.0,4.0,4.0,2.0,1,0,0,6.0,0,1,4.0,12.0,3.0,2.0,1.0,1.0,4.0,0.0,2.0,2.0,0.0,1.0,6.0,0.0,6.0,0.0,1.0,1.0,2.0,1.0,8.0,2.0,0.0,,1.0,1.0,1.0,1.0,0.0,1.0,1.0,0.0,0.0,0.0,1.0,22.0,3.0,,,,5,1,1,0913,1,
6,goqg8xni,0,37,36,Non_clairvoyant_dynamic,Results,2021-09-13 16:33:49.638664,1,56.0,igdrqddk,0,0.1,Non_clairvoyant_dynamic,0.0,6,56.0,2.0,2.0,2.0,1,1,0,0,0,0,2.0,1,0,0,0,0,0,4.0,4.0,8.0,2.0,1.0,0.0,8.0,0.0,-2.0,6.0,1.0,0.0,4.0,2.0,2.0,50.0,48.0,56.0,5.6,8.0,1.0,1.0,0.0,7,15.6,0.0,0.0,1.0,0.0,4.0,4.0,4.0,0,1,0,6.0,0,1,8.0,12.0,1.0,4.0,0.0,1.0,4.0,4.0,2.0,6.0,1.0,1.0,8.0,0.0,8.0,1.0,1.0,1.0,4.0,1.0,4.0,2.0,1.0,4.0,1.0,1.0,1.0,1.0,1.0,1.0,1.0,0.0,0.0,0.0,0.0,20.0,5.0,3.0,I bid the amount of points that I valued the item as.,"I don't take many risks, if there's a less than 50% chance I can get a higher amount of points I won't take it.",12,1,1,0913,1,
8,jaq6oi6x,0,37,36,Non_clairvoyant_dynamic,Results,2021-09-13 16:38:51.260123,1,54.0,igdrqddk,0,0.1,Non_clairvoyant_dynamic,0.0,8,54.0,2.0,2.0,2.0,1,0,0,0,0,0,2.0,1,0,0,0,0,0,4.0,4.0,2.0,4.0,1.0,0.0,2.0,0.0,-4.0,4.0,1.0,1.0,8.0,2.0,6.0,50.0,46.0,54.0,5.4,8.0,1.0,1.0,1.0,7,15.4,0.0,0.0,1.0,0.0,4.0,4.0,6.0,0,0,1,4.0,1,0,12.0,8.0,0.0,5.0,0.0,1.0,4.0,6.0,0.0,6.0,1.0,1.0,9.0,0.0,9.0,1.0,1.0,1.0,6.0,1.0,6.0,4.0,1.0,3.0,1.0,1.0,1.0,1.0,1.0,0.0,1.0,0.0,0.0,0.0,0.0,20.0,2.0,,,,8,1,1,0913,1,
9,3zryn4ic,0,37,36,Non_clairvoyant_dynamic,Results,2021-09-13 16:39:28.326743,1,70.0,igdrqddk,0,0.1,Non_clairvoyant_dynamic,0.0,9,70.0,2.0,2.0,2.0,1,0,0,0,0,0,4.0,0,1,0,0,0,0,4.0,8.0,4.0,3.0,0.0,1.0,2.0,2.0,2.0,20.0,1.0,1.0,5.0,0.0,5.0,52.0,54.0,70.0,7.0,16.0,1.0,1.0,1.0,5,17.0,0.0,0.0,1.0,0.0,4.0,4.0,4.0,0,1,0,4.0,1,0,8.0,8.0,0.0,5.0,0.0,1.0,4.0,4.0,0.0,4.0,1.0,1.0,9.0,0.0,9.0,1.0,1.0,1.0,5.0,1.0,6.0,3.0,1.0,4.0,1.0,1.0,1.0,1.0,0.0,0.0,0.0,0.0,0.0,0.0,0.0,19.0,10.0,2.79,Bid high since I had a better chance of winning and I still only had to pay whatever the original fee was,Bid my price since I paid the membership fee,9,1,1,0913,1,
10,0nn4wr8s,0,37,36,Non_clairvoyant_dynamic,Results,2021-09-13 16:33:03.535544,1,62.0,igdrqddk,0,0.1,Non_clairvoyant_dynamic,0.0,10,62.0,2.0,2.0,2.0,1,0,0,0,0,0,4.0,0,1,0,0,0,0,4.0,8.0,16.0,1.0,0.0,1.0,2.0,2.0,2.0,12.0,1.0,1.0,3.0,0.0,3.0,52.0,54.0,62.0,6.2,8.0,0.0,1.0,0.0,10,16.2,0.0,0.0,1.0,0.0,4.0,4.0,6.0,0,0,1,4.0,1,0,12.0,8.0,4.0,1.0,1.0,0.0,4.0,0.0,-1.0,-1.0,0.0,1.0,5.0,0.0,5.0,0.0,1.0,1.0,1.0,1.0,6.0,1.0,1.0,2.0,1.0,1.0,1.0,1.0,1.0,1.0,0.0,1.0,0.0,0.0,1.0,19.0,3.0,3.79,using the distribution table I sold for whatever the most way that was lower than my true value so I could take less risk keep a profit,I bought the fee so I ended up increasing my bid using the profit from the first round,10,1,1,0913,1,
11,1svy5qcr,0,37,36,Non_clairvoyant_dynamic,Results,2021-09-13 16:33:32.621909,1,70.0,igdrqddk,0,0.1,Non_clairvoyant_dynamic,0.0,11,70.0,2.0,2.0,4.0,0,1,0,0,0,0,2.0,1,0,0,0,0,0,8.0,4.0,2.0,4.0,0.0,1.0,2.0,4.0,0.0,20.0,1.0,1.0,6.0,0.0,6.0,54.0,54.0,70.0,7.0,16.0,1.0,1.0,1.0,3,17.0,0.0,0.0,1.0,0.0,4.0,4.0,6.0,0,0,1,4.0,1,0,12.0,8.0,0.0,5.0,0.0,0.0,0.0,6.0,-1.0,5.0,1.0,1.0,5.0,0.0,5.0,1.0,1.0,1.0,8.0,1.0,4.0,4.0,1.0,2.0,1.0,1.0,0.0,0.0,0.0,0.0,0.0,0.0,0.0,0.0,0.0,26.0,5.0,,,,11,1,1,0913,1,
12,sd6izmxw,0,37,36,Non_clairvoyant_dynamic,Results,2021-09-13 16:36:39.330331,1,60.0,igdrqddk,0,0.1,Non_clairvoyant_dynamic,0.0,12,60.0,2.0,2.0,4.0,0,1,0,0,0,0,2.0,1,0,0,0,0,0,8.0,4.0,2.0,4.0,1.0,1.0,2.0,2.0,0.0,10.0,1.0,1.0,8.0,2.0,6.0,52.0,52.0,60.0,6.0,8.0,1.0,1.0,1.0,10,16.0,0.0,0.0,1.0,0.0,4.0,4.0,4.0,0,1,0,6.0,0,1,8.0,12.0,2.0,3.0,0.0,1.0,4.0,4.0,2.0,6.0,1.0,1.0,7.0,0.0,7.0,0.0,1.0,1.0,3.0,1.0,6.0,4.0,1.0,4.0,1.0,1.0,1.0,1.0,1.0,1.0,0.0,0.0,0.0,0.0,1.0,20.0,3.0,3.6,"made the highest bid possible, it was the safest option",made the highest bid possible,6,1,1,0913,1,
13,x3sk601e,0,37,36,Non_clairvoyant_dynamic,Results,2021-09-13 16:38:05.467104,1,59.0,igdrqddk,0,0.1,Non_clairvoyant_dynamic,0.0,13,59.0,2.0,2.0,2.0,1,0,0,0,0,0,8.0,0,0,1,0,0,0,4.0,16.0,2.0,4.0,0.0,0.0,2.0,2.0,2.0,9.0,1.0,1.0,6.0,0.0,6.0,52.0,54.0,59.0,5.9,5.0,1.0,1.0,1.0,10,15.9,0.0,0.0,1.0,0.0,4.0,4.0,4.0,0,1,0,4.0,1,0,8.0,8.0,0.0,5.0,0.0,0.0,0.0,4.0,-1.0,3.0,1.0,1.0,5.0,0.0,5.0,1.0,1.0,1.0,6.0,1.0,8.0,4.0,1.0,9.0,0.0,0.0,0.0,0.0,0.0,0.0,0.0,0.0,0.0,0.0,1.0,21.0,3.0,3.4,the highest bid,above average points,7,1,1,0913,1,
16,it84a3pj,0,37,36,Non_clairvoyant_dynamic,Results,2021-09-13 16:41:26.209125,1,57.0,igdrqddk,0,0.1,Non_clairvoyant_dynamic,0.0,16,57.0,2.0,2.0,2.0,1,0,0,0,0,0,4.0,0,1,0,0,0,0,4.0,8.0,2.0,4.0,1.0,1.0,2.0,0.0,2.0,7.0,1.0,1.0,8.0,2.0,6.0,50.0,52.0,57.0,5.7,5.0,1.0,1.0,1.0,10,15.7,0.0,0.0,1.0,0.0,4.0,4.0,6.0,0,0,1,4.0,1,0,12.0,8.0,0.0,5.0,1.0,0.0,0.0,2.0,-1.0,1.0,1.0,1.0,9.0,4.0,5.0,1.0,1.0,1.0,5.0,1.0,4.0,4.0,1.0,6.0,1.0,1.0,0.0,0.0,0.0,1.0,1.0,0.0,0.0,0.0,0.0,20.0,8.0,3.85,If I would gain more,If I would gain more,16,1,1,0913,1,
17,y5c8be8u,0,37,36,Non_clairvoyant_dynamic,Results,2021-09-13 16:41:36.784817,1,78.0,igdrqddk,0,0.1,Non_clairvoyant_dynamic,0.0,17,78.0,2.0,2.0,4.0,0,1,0,0,0,0,16.0,0,0,0,1,0,0,8.0,32.0,4.0,3.0,0.0,1.0,2.0,4.0,14.0,28.0,1.0,1.0,5.0,0.0,5.0,54.0,68.0,78.0,7.8,10.0,1.0,1.0,1.0,2,17.8,0.0,0.0,1.0,0.0,4.0,4.0,6.0,0,0,1,6.0,0,1,12.0,12.0,4.0,1.0,1.0,1.0,4.0,0.0,2.0,2.0,0.0,1.0,5.0,0.0,5.0,0.0,1.0,1.0,1.0,1.0,5.0,3.0,1.0,4.0,1.0,1.0,1.0,1.0,1.0,1.0,0.0,0.0,0.0,0.0,0.0,21.0,7.0,4.0,Just tried to pick the middle of the choices as well as bid the least amount,Just tried to pick the middle of the range and bid the least amount,17,1,1,0913,1,
18,4zo57cxk,0,37,36,Non_clairvoyant_dynamic,Results,2021-09-13 16:41:57.156072,1,68.0,igdrqddk,0,0.1,Non_clairvoyant_dynamic,0.0,18,68.0,2.0,2.0,4.0,0,1,0,0,0,0,2.0,1,0,0,0,0,0,8.0,4.0,2.0,4.0,1.0,1.0,2.0,2.0,0.0,18.0,1.0,1.0,8.0,2.0,6.0,52.0,52.0,68.0,6.8,16.0,1.0,1.0,1.0,2,16.8,0.0,0.0,1.0,0.0,4.0,4.0,6.0,0,0,1,4.0,1,0,12.0,8.0,1.0,4.0,0.0,0.0,1.0,6.0,-1.0,5.0,1.0,1.0,5.0,0.0,5.0,1.0,1.0,1.0,4.0,1.0,6.0,4.0,1.0,3.0,1.0,1.0,1.0,1.0,0.0,0.0,0.0,0.0,0.0,0.0,0.0,20.0,2.0,3.92,"When making a decision in the first period, I decided to pick between numbers to try and guess the secret number.","When making a decision in the second period, I chose to pay the membership fee and then proceeded to choose a number so I could get the membership waived. ",18,1,1,0913,1,
19,g0f6jws6,0,37,36,Non_clairvoyant_dynamic,Results,2021-09-13 16:42:12.679177,1,62.0,igdrqddk,0,0.1,Non_clairvoyant_dynamic,0.0,19,62.0,2.0,2.0,4.0,0,1,0,0,0,0,2.0,1,0,0,0,0,0,8.0,4.0,2.0,4.0,1.0,1.0,2.0,2.0,0.0,12.0,1.0,0.0,2.0,2.0,0.0,52.0,52.0,62.0,6.2,10.0,1.0,0.0,0.0,1,16.2,0.0,0.0,1.0,0.0,4.0,4.0,2.0,1,0,0,4.0,1,0,4.0,8.0,1.0,4.0,0.0,0.0,1.0,2.0,-1.0,1.0,1.0,1.0,5.0,0.0,5.0,1.0,1.0,1.0,4.0,1.0,8.0,4.0,0.0,,1.0,0.0,1.0,1.0,1.0,1.0,0.0,0.0,0.0,0.0,0.0,22.0,5.0,3.6,Since I got a profit the first time I didn't want to go again with my luck,I wanted to choose the lower option the first 5 then higher option for the next 5 cause my chances were higher,19,1,1,0913,1,
20,mvp8k745,0,37,36,Non_clairvoyant_dynamic,Results,2021-09-13 16:42:30.957220,1,58.0,igdrqddk,0,0.1,Non_clairvoyant_dynamic,0.0,20,58.0,2.0,2.0,4.0,0,1,0,0,0,0,2.0,1,0,0,0,0,0,8.0,4.0,2.0,4.0,0.0,0.0,2.0,4.0,-4.0,8.0,1.0,1.0,6.0,0.0,6.0,54.0,50.0,58.0,5.8,8.0,1.0,1.0,1.0,7,15.8,0.0,0.0,1.0,0.0,4.0,4.0,6.0,0,0,1,4.0,1,0,12.0,8.0,0.0,5.0,0.0,0.0,0.0,6.0,-1.0,5.0,1.0,1.0,5.0,0.0,5.0,1.0,1.0,1.0,5.0,1.0,4.0,4.0,1.0,2.0,1.0,1.0,1.0,1.0,1.0,0.0,0.0,0.0,0.0,0.0,1.0,20.0,3.0,3.2,Don't bid more than the value of the item. You could pay more than the item is worth.,Pay the fee. Hope for a higher value. got 2 so didnt want to bid more than 2. Ended up losing points,20,1,1,0913,1,
1,tqh7bf87,0,37,36,Non_clairvoyant_dynamic_worse_2,Results,2021-09-13 17:44:50.208044,1,70.0,8tt4aoii,0,0.1,Non_clairvoyant_dynamic_worse_2,0.0,1,70.0,2.0,2.0,4.0,1,1,0,0,0,0,4.0,0,1,0,0,0,0,8.0,8.0,0.0,2.0,1.0,1.0,2.0,2.0,2.0,20.0,1.0,1.0,6.0,2.0,4.0,52.0,54.0,70.0,7.0,16.0,1.0,1.0,1.0,5,17.0,0.0,0.0,1.0,0.0,4.0,4.0,6.0,0,0,1,6.0,0,1,12.0,12.0,0.0,5.0,1.0,1.0,4.0,2.0,2.0,4.0,1.0,1.0,13.0,4.0,9.0,1.0,1.0,1.0,6.0,1.0,4.0,2.0,1.0,2.0,1.0,0.0,1.0,1.0,0.0,0.0,0.0,0.0,0.0,0.0,0.0,21.0,8.0,2.8,based off the chart there was 50% chance for that certain number ,with the membership fee i picked smaller numbers knowing the numbers would be smaller,1,1,1,0913,2,
2,bvtypppt,0,37,36,Non_clairvoyant_dynamic_worse_2,Results,2021-09-13 17:45:01.441640,1,62.0,8tt4aoii,0,0.1,Non_clairvoyant_dynamic_worse_2,0.0,2,62.0,2.0,2.0,2.0,1,0,0,0,0,0,4.0,0,1,0,0,0,0,4.0,8.0,0.0,2.0,1.0,0.0,0.0,0.0,2.0,12.0,1.0,1.0,4.0,2.0,2.0,50.0,52.0,62.0,6.2,10.0,1.0,1.0,1.0,1,16.2,0.0,0.0,1.0,0.0,4.0,4.0,2.0,1,0,0,4.0,1,0,4.0,8.0,4.0,1.0,1.0,0.0,4.0,0.0,-1.0,-1.0,0.0,1.0,5.0,0.0,5.0,0.0,1.0,1.0,1.0,1.0,4.0,2.0,1.0,2.0,1.0,1.0,1.0,1.0,1.0,0.0,0.0,0.0,0.0,0.0,0.0,19.0,5.0,3.86,"I realized that I have nothing really to lose so I just went in, and the highest probability was 50% for the number 2 so I chose that number and got it right.","I was risking more, in the practice I had ended with -1 points so I just was hoping this time I would've picked the better answer.",2,1,1,0913,2,
3,flatdjcr,0,37,36,Non_clairvoyant_dynamic_worse_2,Results,2021-09-13 17:45:32.770749,1,56.0,8tt4aoii,0,0.1,Non_clairvoyant_dynamic_worse_2,0.0,3,56.0,2.0,2.0,2.0,1,0,0,0,0,0,4.0,0,1,0,0,0,0,4.0,8.0,0.0,3.0,1.0,0.0,0.0,0.0,1.0,6.0,1.0,1.0,5.0,2.0,3.0,50.0,51.0,56.0,5.6,5.0,1.0,1.0,1.0,10,15.6,0.0,0.0,1.0,0.0,4.0,4.0,4.0,0,1,0,4.0,1,0,8.0,8.0,0.0,5.0,1.0,0.0,0.0,0.0,-1.0,-1.0,1.0,1.0,9.0,4.0,5.0,1.0,1.0,1.0,8.0,1.0,4.0,4.0,1.0,6.0,1.0,1.0,0.0,0.0,0.0,1.0,1.0,1.0,0.0,1.0,1.0,23.0,5.0,3.4,mostly predicting ,guessing as well,3,1,1,0913,2,
4,lqdm7470,0,37,36,Non_clairvoyant_dynamic_worse_2,Results,2021-09-13 17:45:55.796693,1,56.0,8tt4aoii,0,0.1,Non_clairvoyant_dynamic_worse_2,0.0,4,56.0,2.0,2.0,4.0,0,1,0,0,0,0,2.0,1,0,0,0,0,0,8.0,4.0,0.0,3.0,1.0,0.0,0.0,2.0,-1.0,6.0,1.0,1.0,5.0,2.0,3.0,52.0,51.0,56.0,5.6,5.0,1.0,1.0,1.0,10,15.6,0.0,0.0,1.0,0.0,4.0,4.0,6.0,0,0,1,6.0,0,1,12.0,12.0,0.0,5.0,1.0,1.0,4.0,2.0,2.0,4.0,1.0,1.0,13.0,4.0,9.0,1.0,1.0,1.0,6.0,1.0,7.0,8.0,1.0,4.0,1.0,1.0,1.0,1.0,0.0,1.0,0.0,0.0,0.0,0.0,0.0,18.0,1.0,4.0,I bid the highest number that was distributed amongst the pool.,"I bid higher than the highest number distributed amongst the pool, in consideration of the membership fee.",4,1,1,0913,2,
5,oipufw5p,0,37,36,Non_clairvoyant_dynamic_worse_2,Results,2021-09-13 17:46:09.319009,1,62.0,8tt4aoii,0,0.1,Non_clairvoyant_dynamic_worse_2,0.0,5,62.0,2.0,2.0,4.0,0,1,0,0,0,0,4.0,0,1,0,0,0,0,8.0,8.0,0.0,3.0,1.0,1.0,2.0,2.0,2.0,12.0,1.0,1.0,7.0,2.0,5.0,52.0,54.0,62.0,6.2,8.0,1.0,1.0,1.0,6,16.2,0.0,0.0,1.0,0.0,4.0,4.0,4.0,0,1,0,6.0,0,1,8.0,12.0,2.0,3.0,1.0,1.0,4.0,0.0,2.0,2.0,0.0,1.0,7.0,0.0,7.0,0.0,1.0,1.0,3.0,1.0,12.0,6.0,1.0,4.0,1.0,1.0,1.0,1.0,1.0,1.0,0.0,0.0,0.0,0.0,1.0,25.0,5.0,4.0,"As there is no membership fee and we only have to pay the secret price even the bidding value is high, I chose the larger value as I will be making the profit for sure","To play the game, the membership price is mandatory so paid membership price, Item value divided 50%-50% among 4 points and 2 points. So, I kept the bidding price as 4 as the robot also have to consider 2 points to consider a secret price and it will be less then 4. So, I chose 4",5,1,1,0913,2,
6,55okfadq,0,37,36,Non_clairvoyant_dynamic_worse_2,Results,2021-09-13 17:46:21.684653,1,68.0,8tt4aoii,0,0.1,Non_clairvoyant_dynamic_worse_2,0.0,6,68.0,2.0,2.0,2.0,1,0,0,0,0,0,2.0,1,0,0,0,0,0,4.0,4.0,0.0,2.0,0.0,0.0,0.0,2.0,0.0,18.0,1.0,1.0,2.0,0.0,2.0,52.0,52.0,68.0,6.8,16.0,1.0,1.0,1.0,4,16.8,0.0,0.0,1.0,0.0,4.0,4.0,2.0,1,0,0,6.0,0,1,4.0,12.0,1.0,4.0,0.0,0.0,1.0,2.0,1.0,3.0,1.0,1.0,5.0,0.0,5.0,1.0,1.0,1.0,4.0,1.0,12.0,2.0,1.0,3.0,1.0,1.0,1.0,0.0,0.0,0.0,0.0,0.0,0.0,0.0,1.0,23.0,3.0,3.5,I based my decision on how much could I bet without losing money,"In the second period I was willing to risk one point more just to obtain the object, because of the points I earned in the first period",6,1,1,0913,2,
7,55mglaly,0,37,36,Non_clairvoyant_dynamic_worse_2,Results,2021-09-13 17:46:37.552771,1,73.0,8tt4aoii,0,0.1,Non_clairvoyant_dynamic_worse_2,0.0,7,73.0,2.0,2.0,16.0,0,0,0,1,0,0,2.0,1,0,0,0,0,0,32.0,4.0,0.0,3.0,1.0,0.0,0.0,14.0,-1.0,23.0,1.0,1.0,5.0,2.0,3.0,64.0,63.0,73.0,7.3,10.0,1.0,0.0,1.0,1,17.3,0.0,0.0,1.0,0.0,4.0,4.0,6.0,0,0,1,6.0,0,1,12.0,12.0,1.0,4.0,0.0,0.0,1.0,6.0,1.0,7.0,1.0,1.0,5.0,0.0,5.0,1.0,1.0,1.0,4.0,1.0,6.0,8.0,1.0,1.0,1.0,0.0,0.0,0.0,1.0,1.0,1.0,0.0,0.0,0.0,1.0,18.0,5.0,3.67,"In the first period, my decisions where mostly based on chance, but taking the price into account.","In the second period, my decisions were based on the fact that there was a possibility to gain points if I paid the membership price, but I could have lost (which I did).  In this case, it was a gamble to walk away with 3 points, or put them on the line.  I put them on the line, and ended up with -1",7,1,1,0913,2,
8,3jxbi7qz,0,37,36,Non_clairvoyant_dynamic_worse_2,Results,2021-09-13 17:46:48.122388,1,57.0,8tt4aoii,0,0.1,Non_clairvoyant_dynamic_worse_2,0.0,8,57.0,2.0,2.0,2.0,1,0,0,0,0,0,4.0,0,1,0,0,0,0,4.0,8.0,0.0,3.0,1.0,1.0,2.0,0.0,2.0,7.0,1.0,1.0,7.0,2.0,5.0,50.0,52.0,57.0,5.7,5.0,1.0,1.0,1.0,8,15.7,0.0,0.0,1.0,0.0,4.0,4.0,2.0,1,0,0,4.0,1,0,4.0,8.0,3.0,2.0,1.0,0.0,3.0,0.0,-1.0,-1.0,0.0,1.0,5.0,0.0,5.0,0.0,1.0,1.0,2.0,1.0,8.0,3.0,1.0,7.0,1.0,1.0,0.0,0.0,0.0,0.0,1.0,1.0,0.0,0.0,0.0,20.0,6.0,2.61,Good,Good,8,1,1,0913,2,
9,9azhphtr,0,37,36,Non_clairvoyant_dynamic_worse_2,Results,2021-09-13 17:47:00.735157,1,71.0,8tt4aoii,0,0.1,Non_clairvoyant_dynamic_worse_2,0.0,9,71.0,2.0,2.0,4.0,0,1,0,0,0,0,4.0,0,1,0,0,0,0,8.0,8.0,0.0,3.0,0.0,0.0,0.0,4.0,1.0,21.0,1.0,1.0,3.0,0.0,3.0,54.0,55.0,71.0,7.1,16.0,1.0,1.0,1.0,1,17.1,0.0,0.0,1.0,0.0,4.0,4.0,4.0,0,1,0,6.0,0,1,8.0,12.0,0.0,5.0,1.0,1.0,4.0,0.0,2.0,2.0,1.0,1.0,13.0,4.0,9.0,1.0,1.0,1.0,6.0,1.0,5.0,4.0,1.0,3.0,1.0,1.0,1.0,1.0,0.0,0.0,1.0,0.0,0.0,0.0,0.0,21.0,7.0,,,,9,1,1,0913,2,
10,7ye6efv3,0,37,36,Non_clairvoyant_dynamic_worse_2,Results,2021-09-13 17:47:13.436700,1,60.0,8tt4aoii,0,0.1,Non_clairvoyant_dynamic_worse_2,0.0,10,60.0,2.0,2.0,4.0,0,1,0,0,0,0,4.0,0,1,0,0,0,0,8.0,8.0,0.0,3.0,0.0,0.0,0.0,4.0,1.0,10.0,1.0,1.0,3.0,0.0,3.0,54.0,55.0,60.0,6.0,5.0,1.0,1.0,1.0,10,16.0,0.0,0.0,1.0,0.0,4.0,4.0,2.0,1,0,0,6.0,0,1,4.0,12.0,3.0,2.0,0.0,1.0,4.0,2.0,2.0,4.0,1.0,1.0,6.0,0.0,6.0,0.0,1.0,1.0,2.0,1.0,6.0,4.0,1.0,4.0,1.0,1.0,1.0,1.0,0.0,0.0,0.0,0.0,0.0,0.0,1.0,36.0,1.0,3.89,matching the secret price,matching the secret price,10,1,1,0913,2,
11,f7lgjc9u,0,37,36,Non_clairvoyant_dynamic_worse_2,Results,2021-09-13 17:47:24.064691,1,66.0,8tt4aoii,0,0.1,Non_clairvoyant_dynamic_worse_2,0.0,11,66.0,2.0,2.0,2.0,1,0,0,0,0,0,2.0,1,0,0,0,0,0,4.0,4.0,3.0,0.0,1.0,0.0,3.0,0.0,0.0,16.0,0.0,0.0,0.0,0.0,0.0,50.0,50.0,66.0,6.6,16.0,0.0,0.0,0.0,4,16.6,0.0,0.0,1.0,0.0,4.0,4.0,2.0,1,0,0,6.0,0,1,4.0,12.0,6.0,0.0,0.0,0.0,6.0,2.0,0.0,2.0,1.0,0.0,0.0,0.0,0.0,0.0,1.0,0.0,0.0,1.0,4.0,0.0,1.0,1.0,1.0,1.0,1.0,0.0,0.0,0.0,0.0,0.0,0.0,0.0,1.0,20.0,7.0,3.97,"I chose 0 as I only valued it at 2 and so even if the secret price was 2 and I got the item, I would have broken even. I also chose 0 as I knew it would influence the membership fee + secret price for the next round. ","I chose 1 as I only valued it at 2 and so even if the secret price was 2 and I got the item, I would have broken even. ",11,1,1,0913,2,
1,8xvv0uoe,0,25,24,Static_mechanism_worse_1,Results,2021-09-13 19:13:16.794784,1,57.0,z3juhl9y,0,0.1,Static_mechanism_worse_1,0.0,1,57.0,2.0,2.0,2.0,1,0,0,0,0,0,4.0,0,1,0,0,0,0,4.0,8.0,,,,,,0.0,2.0,7.0,1.0,1.0,4.0,2.0,2.0,50.0,52.0,57.0,5.7,5.0,,,,10,16.0,0.0,0.0,,,4.0,4.0,6.0,0,0,1,4.0,1,1,12.0,8.0,,,,,,2.0,0.0,2.0,1.0,1.0,8.0,4.0,4.0,,,,7.0,,7.0,4.0,,6.0,1.0,0.0,1.0,1.0,0.0,1.0,1.0,0.0,0.0,0.0,0.0,20.0,5.0,3.53,Based off of probability,Guessing higher than 5 so that my odds increase.,1,1,1,0913,3,
2,8f1fcs8c,0,25,24,Static_mechanism_worse_1,Results,2021-09-13 19:13:29.401336,1,68.0,z3juhl9y,0,0.1,Static_mechanism_worse_1,0.0,2,68.0,2.0,2.0,4.0,0,1,0,0,0,0,2.0,1,0,0,0,0,0,8.0,4.0,,,,,,2.0,0.0,18.0,1.0,1.0,4.0,2.0,2.0,52.0,52.0,68.0,6.8,16.0,,,,1,17.0,0.0,0.0,,,4.0,4.0,4.0,0,1,0,4.0,1,1,8.0,8.0,,,,,,0.0,0.0,0.0,1.0,1.0,8.0,4.0,4.0,,,,4.0,,6.0,6.0,,4.0,1.0,1.0,1.0,0.0,0.0,0.0,1.0,0.0,0.0,1.0,0.0,19.0,7.0,3.98,Trying to always get a number equal or higher to what the secret number could be,Trying to understand the probabilities of me getting more money by randomly getting numbers,2,1,1,0913,3,
3,s82myxqp,0,25,24,Static_mechanism_worse_1,Results,2021-09-13 19:13:39.964377,1,64.0,z3juhl9y,0,0.1,Static_mechanism_worse_1,0.0,3,64.0,2.0,2.0,2.0,1,0,0,0,0,0,8.0,0,0,1,0,0,0,4.0,16.0,,,,,,0.0,6.0,14.0,0.0,1.0,2.0,0.0,2.0,50.0,56.0,64.0,6.4,8.0,,,,7,16.0,0.0,0.0,,,4.0,4.0,2.0,1,0,0,4.0,1,1,4.0,8.0,,,,,,0.0,0.0,0.0,0.0,1.0,4.0,0.0,4.0,,,,2.0,,4.0,0.0,,8.0,1.0,1.0,1.0,1.0,1.0,0.0,0.0,0.0,0.0,0.0,0.0,20.0,9.0,3.2,The safest given the points i had and the chances i could afford it,most profitable options ,3,1,1,0913,3,
4,pmu81bcm,0,25,24,Static_mechanism_worse_1,Results,2021-09-13 19:13:56.342864,1,62.0,z3juhl9y,0,0.1,Static_mechanism_worse_1,0.0,4,62.0,2.0,2.0,2.0,1,0,0,0,0,0,4.0,0,1,0,0,0,0,4.0,8.0,,,,,,0.0,2.0,12.0,1.0,1.0,4.0,2.0,2.0,50.0,52.0,62.0,6.2,10.0,,,,2,16.0,0.0,0.0,,,4.0,4.0,2.0,1,0,0,6.0,0,1,4.0,12.0,,,,,,0.0,2.0,2.0,0.0,1.0,4.0,0.0,4.0,,,,3.0,,10.0,3.0,,6.0,1.0,1.0,1.0,1.0,1.0,0.0,0.0,0.0,0.0,0.0,0.0,20.0,8.0,3.9,Guessed to be honest,guessed,4,1,1,0913,3,
5,h0fgvzuv,0,25,24,Static_mechanism_worse_1,Results,2021-09-13 19:14:12.182699,1,68.0,z3juhl9y,0,0.1,Static_mechanism_worse_1,0.0,5,68.0,2.0,2.0,4.0,0,1,0,0,0,0,8.0,0,0,1,0,0,0,8.0,16.0,,,,,,2.0,6.0,18.0,1.0,1.0,4.0,2.0,2.0,52.0,58.0,68.0,6.8,10.0,,,,4,17.0,0.0,0.0,,,4.0,4.0,6.0,0,0,1,4.0,1,0,12.0,8.0,,,,,,2.0,0.0,2.0,1.0,1.0,8.0,4.0,4.0,,,,6.0,,4.0,4.0,,8.0,1.0,1.0,1.0,1.0,1.0,0.0,0.0,0.0,0.0,0.0,1.0,23.0,2.0,3.54,always tried used the true value,Accepted only 50% chance of higher to get 16,5,1,1,0913,3,
6,ixrs4zpf,0,25,24,Static_mechanism_worse_1,Results,2021-09-13 19:14:24.237874,1,87.0,z3juhl9y,0,0.1,Static_mechanism_worse_1,0.0,6,87.0,2.0,2.0,4.0,0,1,0,0,0,0,32.0,0,0,0,0,1,0,8.0,64.0,,,,,,2.0,30.0,37.0,1.0,1.0,4.0,2.0,2.0,52.0,82.0,87.0,8.7,5.0,,,,8,19.0,0.0,0.0,,,4.0,4.0,4.0,0,1,0,6.0,1,1,8.0,12.0,,,,,,0.0,2.0,2.0,1.0,1.0,8.0,4.0,4.0,,,,6.0,,6.0,8.0,,64.0,1.0,1.0,1.0,1.0,0.0,0.0,0.0,1.0,1.0,0.0,1.0,36.0,10.0,3.5,I bid as high as possible,I bid as high as possible,6,1,1,0913,3,
7,ufradipi,0,25,24,Static_mechanism_worse_1,Results,2021-09-13 19:14:33.760428,1,57.0,z3juhl9y,0,0.1,Static_mechanism_worse_1,0.0,7,57.0,2.0,2.0,4.0,0,1,0,0,0,0,2.0,1,0,0,0,0,0,8.0,4.0,,,,,,2.0,0.0,7.0,1.0,0.0,2.0,2.0,0.0,52.0,52.0,57.0,5.7,5.0,,,,7,16.0,0.0,0.0,,,4.0,4.0,6.0,0,0,1,6.0,0,1,12.0,12.0,,,,,,2.0,2.0,4.0,1.0,1.0,8.0,4.0,4.0,,,,5.0,,5.0,3.0,,1.0,1.0,1.0,0.0,0.0,0.0,0.0,0.0,0.0,0.0,0.0,1.0,20.0,10.0,3.96,I chose a number slightly lower than my value of the item.,I chose a number slightly lower than my value of the item.,7,1,1,0913,3,
8,mqskxljr,0,25,24,Static_mechanism_worse_1,Results,2021-09-13 19:14:47.569081,1,57.0,z3juhl9y,0,0.1,Static_mechanism_worse_1,0.0,8,57.0,2.0,2.0,4.0,0,1,0,0,0,0,2.0,1,0,0,0,0,0,8.0,4.0,,,,,,2.0,0.0,7.0,1.0,1.0,4.0,2.0,2.0,52.0,52.0,57.0,5.7,5.0,,,,10,16.0,0.0,0.0,,,4.0,4.0,2.0,1,0,0,4.0,1,0,4.0,8.0,,,,,,0.0,0.0,0.0,0.0,1.0,4.0,0.0,4.0,,,,2.0,,6.0,2.0,,2.0,1.0,1.0,1.0,1.0,0.0,0.0,0.0,1.0,0.0,0.0,0.0,20.0,8.0,3.34,I thought about the numbers and chose the most logical choice ,I thought about the statistical probability of each answer and guessed accordingly,8,1,1,0913,3,
9,zak1r0dx,0,25,24,Static_mechanism_worse_1,Results,2021-09-13 19:15:00.069148,1,60.0,z3juhl9y,0,0.1,Static_mechanism_worse_1,0.0,9,60.0,2.0,2.0,4.0,0,1,0,0,0,0,2.0,1,0,0,0,0,0,8.0,4.0,,,,,,2.0,0.0,10.0,1.0,1.0,4.0,2.0,2.0,52.0,52.0,60.0,6.0,8.0,,,,7,16.0,0.0,0.0,,,4.0,4.0,4.0,0,1,0,4.0,1,0,8.0,8.0,,,,,,0.0,0.0,0.0,1.0,1.0,8.0,4.0,4.0,,,,6.0,,6.0,4.0,,2.0,0.0,1.0,0.0,1.0,1.0,0.0,0.0,1.0,0.0,0.0,0.0,33.0,8.0,,,,9,1,1,0913,3,
10,bhs1p29v,0,25,24,Static_mechanism_worse_1,Results,2021-09-13 19:15:13.917280,1,64.0,z3juhl9y,0,0.1,Static_mechanism_worse_1,0.0,10,64.0,2.0,2.0,4.0,0,1,0,0,0,0,4.0,0,1,0,0,0,0,8.0,8.0,,,,,,2.0,2.0,14.0,1.0,1.0,4.0,2.0,2.0,52.0,54.0,64.0,6.4,10.0,,,,5,16.0,0.0,0.0,,,4.0,4.0,4.0,0,1,0,6.0,0,1,8.0,12.0,,,,,,0.0,2.0,2.0,1.0,1.0,8.0,4.0,4.0,,,,5.0,,12.0,6.0,,6.0,1.0,1.0,1.0,1.0,1.0,1.0,1.0,0.0,0.0,0.0,1.0,21.0,7.0,3.72,Probability,Probability,10,1,1,0913,3,
11,mmgavab7,0,25,24,Static_mechanism_worse_1,Results,2021-09-13 19:15:28.414047,1,57.0,z3juhl9y,0,0.1,Static_mechanism_worse_1,0.0,11,57.0,2.0,2.0,2.0,1,0,0,0,0,0,4.0,0,1,0,0,0,0,4.0,8.0,,,,,,0.0,2.0,7.0,1.0,1.0,4.0,2.0,2.0,50.0,52.0,57.0,5.7,5.0,,,,8,16.0,0.0,0.0,,,4.0,4.0,4.0,0,1,0,6.0,0,1,8.0,12.0,,,,,,0.0,2.0,2.0,1.0,1.0,8.0,4.0,4.0,,,,5.0,,5.0,2.0,,5.0,1.0,1.0,1.0,1.0,0.0,0.0,0.0,0.0,0.0,0.0,1.0,22.0,10.0,3.41,"In the decision in the first period, I ended playing fairly safe and bet one over the true value. ","In the second period, I made sure that I bet within the same true value to play even safer. ",11,1,1,0913,3,
12,hs97iud1,0,25,24,Static_mechanism_worse_1,Results,2021-09-13 19:15:42.059623,1,55.0,z3juhl9y,0,0.1,Static_mechanism_worse_1,0.0,12,55.0,2.0,2.0,2.0,1,0,0,0,0,0,2.0,1,0,0,0,0,0,4.0,4.0,,,,,,0.0,0.0,5.0,1.0,0.0,2.0,2.0,0.0,50.0,50.0,55.0,5.5,5.0,,,,8,16.0,0.0,0.0,,,4.0,4.0,6.0,0,0,1,6.0,0,1,12.0,12.0,,,,,,2.0,2.0,4.0,1.0,1.0,8.0,4.0,4.0,,,,5.0,,5.0,2.0,,1.0,1.0,1.0,1.0,1.0,0.0,0.0,0.0,0.0,1.0,0.0,1.0,22.0,2.0,2.97,My value of the item is what I stuck with.,"I choose lower of my value because I believed with the implementation of the higher bids, the secret would have raised above my value therefore I found it irrelevant to bid higher, but on the off chance it was lower I would have been rewarded.",12,1,1,0913,3,
13,9oa7gryq,0,25,24,Static_mechanism_worse_1,Results,2021-09-13 19:15:57.270554,1,57.0,z3juhl9y,0,0.1,Static_mechanism_worse_1,0.0,13,57.0,2.0,2.0,4.0,0,1,0,0,0,0,2.0,1,0,0,0,0,0,8.0,4.0,,,,,,2.0,0.0,7.0,1.0,1.0,4.0,2.0,2.0,52.0,52.0,57.0,5.7,5.0,,,,8,16.0,0.0,0.0,,,4.0,4.0,2.0,1,0,0,4.0,1,0,4.0,8.0,,,,,,0.0,0.0,0.0,0.0,1.0,4.0,0.0,4.0,,,,2.0,,6.0,2.0,,2.0,1.0,1.0,1.0,1.0,0.0,0.0,0.0,0.0,0.0,0.0,1.0,21.0,3.0,3.79,"I just did what felt would be the most optimal for maximizing the number of points I get, evening out my win and loss chances ","Option B sounded too unlikely for the max points at first, so I went with option A. Once I got to the 50% chances, I went with option B since the max point chance was less of a gamble. ",13,1,1,0913,3,
14,exw6ml00,0,25,24,Static_mechanism_worse_1,Results,2021-09-13 19:16:10.754369,1,66.0,z3juhl9y,0,0.1,Static_mechanism_worse_1,0.0,14,66.0,2.0,2.0,2.0,1,0,0,0,0,0,2.0,1,0,0,0,0,0,4.0,4.0,,,,,,0.0,0.0,16.0,1.0,1.0,4.0,2.0,2.0,50.0,50.0,66.0,6.6,16.0,,,,1,17.0,0.0,0.0,,,4.0,4.0,2.0,1,0,0,4.0,1,0,4.0,8.0,,,,,,0.0,0.0,0.0,0.0,1.0,4.0,0.0,4.0,,,,3.0,,6.0,3.0,,3.0,1.0,1.0,1.0,1.0,0.0,0.0,0.0,0.0,0.0,0.0,1.0,24.0,10.0,3.32,"I chose the highest number, the one with only 5% because I figured if everyone else went lower, I'd be in the top percentile. ","When the odds were no longer 50/50 for the higher pay out, Option A became the safer bet.",14,1,1,0913,3,
15,6yrj9klq,0,25,24,Static_mechanism_worse_1,Results,2021-09-13 19:16:25.374871,1,57.0,z3juhl9y,0,0.1,Static_mechanism_worse_1,0.0,15,57.0,2.0,2.0,2.0,1,0,0,0,0,0,4.0,0,1,0,0,0,0,4.0,8.0,,,,,,0.0,2.0,7.0,1.0,1.0,4.0,2.0,2.0,50.0,52.0,57.0,5.7,5.0,,,,8,16.0,0.0,0.0,,,4.0,4.0,2.0,1,0,0,6.0,1,1,4.0,12.0,,,,,,0.0,2.0,2.0,0.0,1.0,4.0,0.0,4.0,,,,2.0,,6.0,4.0,,4.0,1.0,1.0,1.0,0.0,0.0,0.0,0.0,0.0,0.0,0.0,0.0,22.0,9.0,3.01,I made it based off of how likely each outcome was.,I based it off the probability of each outcome.,15,1,1,0913,3,
16,qvejvzdg,0,25,24,Static_mechanism_worse_1,Results,2021-09-13 19:16:43.558600,1,60.0,z3juhl9y,0,0.1,Static_mechanism_worse_1,0.0,16,60.0,2.0,2.0,4.0,0,1,0,0,0,0,2.0,1,0,0,0,0,0,8.0,4.0,,,,,,2.0,0.0,10.0,1.0,1.0,4.0,2.0,2.0,52.0,52.0,60.0,6.0,8.0,,,,7,16.0,0.0,0.0,,,4.0,4.0,2.0,1,0,0,6.0,1,1,4.0,12.0,,,,,,0.0,2.0,2.0,0.0,1.0,4.0,0.0,4.0,,,,1.0,,4.0,6.0,,3.0,1.0,1.0,1.0,1.0,1.0,0.0,0.0,0.0,0.0,0.0,0.0,20.0,9.0,2.81,I take a chance on my bid.,Same as the first period.,16,1,1,0913,3,
17,2privzfm,0,25,24,Static_mechanism_worse_1,Results,2021-09-13 19:16:56.218131,1,68.0,z3juhl9y,0,0.1,Static_mechanism_worse_1,0.0,17,68.0,2.0,2.0,2.0,1,0,0,0,0,0,4.0,0,1,0,0,0,0,4.0,8.0,,,,,,0.0,2.0,18.0,1.0,1.0,4.0,2.0,2.0,50.0,52.0,68.0,6.8,16.0,,,,2,17.0,0.0,0.0,,,4.0,4.0,4.0,0,1,0,6.0,0,1,8.0,12.0,,,,,,0.0,2.0,2.0,0.0,1.0,4.0,0.0,4.0,,,,3.0,,7.0,3.0,,6.0,1.0,1.0,1.0,0.0,0.0,1.0,0.0,0.0,0.0,0.0,1.0,21.0,5.0,3.5,"I like to risk getting the maximum profit possible. Since this experiment is low stakes, and calculating the worst possible payment per the time spent in this experiment, I figured its still worth the risk. The worst case scenario for me was still a good use of my time.","I was willing again to be a little riskier with my decision making. As stated in the previous section, it was worth choosing riskier options.",17,1,1,0913,3,
18,co0o9xn6,0,25,24,Static_mechanism_worse_1,Results,2021-09-13 19:17:07.945109,1,58.0,z3juhl9y,0,0.1,Static_mechanism_worse_1,0.0,18,58.0,2.0,2.0,2.0,1,0,0,0,0,0,2.0,1,0,0,0,0,0,4.0,4.0,,,,,,0.0,0.0,8.0,1.0,1.0,4.0,2.0,2.0,50.0,50.0,58.0,5.8,8.0,,,,8,16.0,0.0,0.0,,,4.0,4.0,6.0,0,0,1,6.0,0,1,12.0,12.0,,,,,,2.0,2.0,4.0,1.0,1.0,8.0,4.0,4.0,,,,9.0,,8.0,4.0,,4.0,1.0,0.0,1.0,1.0,1.0,1.0,0.0,0.0,0.0,0.0,0.0,21.0,1.0,3.75,"In the first period, I just tried to bid high. I thought it would make sense so then I didn't lose any points by going into the negatives...","The second period, I made decisions based on if I had a higher chance of winning a higher number, I would pick that. So, as the chances switched, my preferences between Option A and B did too. ",18,1,1,0913,3,
19,ptw8qa0a,0,25,24,Static_mechanism_worse_1,Results,2021-09-13 19:17:20.777496,1,57.0,z3juhl9y,0,0.1,Static_mechanism_worse_1,0.0,19,57.0,2.0,2.0,4.0,0,1,0,0,0,0,2.0,1,0,0,0,0,0,8.0,4.0,,,,,,2.0,0.0,7.0,1.0,0.0,2.0,2.0,0.0,52.0,52.0,57.0,5.7,5.0,,,,7,16.0,0.0,0.0,,,4.0,4.0,2.0,1,0,0,6.0,0,1,4.0,12.0,,,,,,0.0,2.0,2.0,0.0,1.0,4.0,0.0,4.0,,,,3.0,,9.0,3.0,,1.0,1.0,1.0,1.0,1.0,0.0,1.0,0.0,0.0,1.0,0.0,0.0,21.0,5.0,3.3,"i was thinking that if i chose i higher number, i would be able to get some extra points by only paying the secret price.",I was thinking that a big win or a big loss is too risky. I would much rather the points be closer together with different probabilities rather than a a giant point difference.,19,1,1,0913,3,
20,wlgx1s0j,0,25,24,Static_mechanism_worse_1,Results,2021-09-13 19:17:29.684876,1,58.0,z3juhl9y,0,0.1,Static_mechanism_worse_1,0.0,20,58.0,2.0,2.0,2.0,1,0,0,0,0,0,2.0,1,0,0,0,0,0,4.0,4.0,,,,,,0.0,0.0,8.0,1.0,1.0,4.0,2.0,2.0,50.0,50.0,58.0,5.8,8.0,,,,7,16.0,0.0,0.0,,,4.0,4.0,4.0,0,1,0,6.0,0,1,8.0,12.0,,,,,,0.0,2.0,2.0,1.0,1.0,8.0,4.0,4.0,,,,4.0,,4.0,2.0,,2.0,1.0,1.0,1.0,1.0,1.0,1.0,0.0,0.0,0.0,0.0,0.0,20.0,6.0,3.48,"I was trying to bid low, but not too low as to still earn the value. I did not understand it too well in all honesty, and I wish I had more opportunity to practice.",I made the decision that I felt would have the greater chance of giving me more points.,20,1,1,0913,3,
22,ctsu6dp7,0,25,24,Static_mechanism_worse_1,Results,2021-09-13 19:17:59.746583,1,60.0,z3juhl9y,0,0.1,Static_mechanism_worse_1,0.0,22,60.0,2.0,2.0,2.0,1,0,0,0,0,0,2.0,1,0,0,0,0,0,4.0,4.0,,,,,,0.0,0.0,10.0,1.0,1.0,4.0,2.0,2.0,50.0,50.0,60.0,6.0,10.0,,,,4,16.0,0.0,0.0,,,4.0,4.0,4.0,0,1,0,6.0,1,1,8.0,12.0,,,,,,0.0,2.0,2.0,1.0,1.0,8.0,4.0,4.0,,,,5.0,,5.0,4.0,,2.0,1.0,1.0,1.0,1.0,1.0,1.0,1.0,0.0,0.0,0.0,1.0,25.0,10.0,3.92,"I looked at the pie chart and anticipated that how likely the machine would set a secret price. Then, when I received the true value I had, I decided to bid higher that it a little bit more.","Similar to the first, I looked at the pie chart and anticipated the price. Then, I found that the true value is pretty low, so I did not bid more than the true value I had.",22,1,1,0913,3,
23,q1z61ogt,0,25,24,Static_mechanism_worse_1,Results,2021-09-13 19:18:09.446639,1,60.0,z3juhl9y,0,0.1,Static_mechanism_worse_1,0.0,23,60.0,2.0,2.0,4.0,0,1,0,0,0,0,2.0,1,0,0,0,0,0,8.0,4.0,,,,,,2.0,0.0,10.0,1.0,1.0,4.0,2.0,2.0,52.0,52.0,60.0,6.0,8.0,,,,9,16.0,0.0,0.0,,,4.0,4.0,4.0,0,1,0,6.0,0,1,8.0,12.0,,,,,,0.0,2.0,2.0,1.0,1.0,8.0,4.0,4.0,,,,6.0,,6.0,6.0,,4.0,1.0,1.0,1.0,1.0,1.0,1.0,1.0,1.0,1.0,0.0,0.0,20.0,8.0,3.9,Always bidding the same number regardless of the price. This study reminds me of stocks and stocks are unpredictable. Unpredictability always favors consistency. ,Same for the first period. Consistency is always favored by unpredictability. ,23,1,1,0913,3,
24,acopaeim,0,25,24,Static_mechanism_worse_1,Results,2021-09-13 19:18:41.015284,1,68.0,z3juhl9y,0,0.1,Static_mechanism_worse_1,0.0,24,68.0,2.0,2.0,4.0,0,1,0,0,0,0,2.0,1,0,0,0,0,0,8.0,4.0,,,,,,2.0,0.0,18.0,1.0,1.0,4.0,2.0,2.0,52.0,52.0,68.0,6.8,16.0,,,,1,17.0,0.0,0.0,,,4.0,4.0,2.0,1,0,0,4.0,1,0,4.0,8.0,,,,,,0.0,0.0,0.0,0.0,0.0,0.0,0.0,0.0,,,,3.0,,3.0,6.0,,4.0,1.0,0.0,1.0,1.0,0.0,0.0,0.0,0.0,0.0,0.0,0.0,28.0,10.0,3.0,By choosing the higher points.,By choosing the higher probability with the most points.,24,1,1,0913,3,
1,7nnpts8z,0,25,24,Static_mechanism_better_2,Results,2021-09-13 20:47:42.470431,1,57.0,pozvojdo,0,0.1,Static_mechanism_better_2,0.0,1,57.0,2.0,2.0,2.0,1,0,0,0,0,0,4.0,0,1,0,0,0,0,4.0,8.0,,,,,,0.0,2.0,7.0,1.0,1.0,4.0,2.0,2.0,50.0,52.0,57.0,5.7,5.0,,,,9,15.7,0.0,0.0,,,4.0,4.0,6.0,0,0,1,4.0,1,0,12.0,8.0,,,,,,2.0,0.0,2.0,1.0,1.0,8.0,4.0,4.0,,,,6.0,,5.0,2.0,,8.0,1.0,1.0,0.0,0.0,0.0,0.0,0.0,1.0,0.0,0.0,1.0,23.0,3.0,0.0,by calculating the probability,by calculating the probability,1,1,1,0913,4,
2,8me0ikvu,0,25,24,Static_mechanism_better_2,Results,2021-09-13 20:48:02.817120,1,74.0,pozvojdo,0,0.1,Static_mechanism_better_2,0.0,2,74.0,2.0,2.0,16.0,0,0,0,1,0,0,2.0,1,0,0,0,0,0,32.0,4.0,,,,,,14.0,0.0,24.0,1.0,1.0,4.0,2.0,2.0,64.0,64.0,74.0,7.4,10.0,,,,4,17.4,0.0,0.0,,,4.0,4.0,2.0,1,0,0,6.0,0,1,4.0,12.0,,,,,,0.0,2.0,2.0,0.0,1.0,4.0,0.0,4.0,,,,2.0,,8.0,16.0,,3.0,1.0,1.0,0.0,1.0,1.0,1.0,1.0,0.0,1.0,0.0,1.0,23.0,5.0,3.4,I tried to pick points and bid 60% over the median number to increase chances and I got profit in both periods. It was a little profit points yet it was something.,I looked at the values for example so choices said 8/10 chance for 16 points 0/8 chance for 8 points vs 9/10 chance for 12 points and 0/20 chance for 20 points. I tried to do mental math and carefully decided which point to pick.,2,1,1,0913,4,
5,mef9hg0t,0,25,24,Static_mechanism_better_2,Results,2021-09-13 20:48:43.051465,1,60.0,pozvojdo,0,0.1,Static_mechanism_better_2,0.0,5,60.0,2.0,2.0,2.0,1,0,0,0,0,0,2.0,1,0,0,0,0,0,4.0,4.0,,,,,,0.0,0.0,10.0,1.0,1.0,4.0,2.0,2.0,50.0,50.0,60.0,6.0,10.0,,,,5,16.0,0.0,0.0,,,4.0,4.0,2.0,1,0,0,6.0,0,1,4.0,12.0,,,,,,-2.0,2.0,0.0,1.0,1.0,8.0,4.0,4.0,,,,4.0,,10.0,3.0,,2.0,0.0,0.0,1.0,0.0,1.0,0.0,1.0,1.0,0.0,0.0,1.0,26.0,3.0,3.8,,,5,1,1,0913,4,
6,ijzlagbz,0,25,24,Static_mechanism_better_2,Results,2021-09-13 20:48:52.677479,1,57.0,pozvojdo,0,0.1,Static_mechanism_better_2,0.0,6,57.0,2.0,2.0,4.0,0,1,0,0,0,0,2.0,1,0,0,0,0,0,8.0,4.0,,,,,,2.0,0.0,7.0,1.0,1.0,4.0,2.0,2.0,52.0,52.0,57.0,5.7,5.0,,,,6,15.7,0.0,0.0,,,4.0,4.0,6.0,0,0,1,4.0,1,0,12.0,8.0,,,,,,2.0,0.0,2.0,1.0,1.0,8.0,4.0,4.0,,,,9.0,,5.0,6.0,,2.0,1.0,1.0,1.0,0.0,0.0,0.0,0.0,0.0,0.0,0.0,1.0,24.0,10.0,,,,6,1,1,0913,4,
7,nq75oe0k,0,25,24,Static_mechanism_better_2,Results,2021-09-13 20:49:05.389373,1,66.0,pozvojdo,0,0.1,Static_mechanism_better_2,0.0,7,66.0,2.0,2.0,8.0,0,0,1,0,0,0,4.0,0,1,0,0,0,0,16.0,8.0,,,,,,6.0,2.0,16.0,1.0,1.0,4.0,2.0,2.0,56.0,58.0,66.0,6.6,8.0,,,,9,16.6,0.0,0.0,,,4.0,4.0,6.0,0,0,1,4.0,1,0,12.0,8.0,,,,,,2.0,0.0,2.0,1.0,1.0,8.0,4.0,4.0,,,,4.0,,4.0,10.0,,8.0,1.0,1.0,1.0,1.0,1.0,1.0,1.0,1.0,1.0,1.0,0.0,30.0,4.0,4.0,By looking at the percentages/likelihood of each price being called. ,By looking at the chance of option A to be less risky than choosing option B.,7,1,1,0913,4,
8,24jh1bw5,0,25,24,Static_mechanism_better_2,Results,2021-09-13 20:49:16.639800,1,98.0,pozvojdo,0,0.1,Static_mechanism_better_2,0.0,8,98.0,2.0,2.0,32.0,0,0,0,0,1,0,4.0,0,1,0,0,0,0,64.0,8.0,,,,,,30.0,2.0,48.0,1.0,1.0,4.0,2.0,2.0,80.0,82.0,98.0,9.8,16.0,,,,2,19.8,0.0,0.0,,,4.0,4.0,4.0,0,1,0,4.0,1,1,8.0,8.0,,,,,,0.0,0.0,0.0,1.0,1.0,8.0,4.0,4.0,,,,7.0,,6.0,32.0,,8.0,1.0,1.0,1.0,1.0,0.0,0.0,0.0,0.0,0.0,0.0,1.0,22.0,5.0,,,,8,1,1,0913,4,
9,5t03i1f3,0,25,24,Static_mechanism_better_2,Results,2021-09-13 20:49:32.924323,1,68.0,pozvojdo,0,0.1,Static_mechanism_better_2,0.0,9,68.0,2.0,2.0,4.0,0,1,0,0,0,0,2.0,1,0,0,0,0,0,8.0,4.0,,,,,,2.0,0.0,18.0,1.0,1.0,4.0,2.0,2.0,52.0,52.0,68.0,6.8,16.0,,,,4,16.8,0.0,0.0,,,4.0,4.0,2.0,1,0,0,6.0,0,1,4.0,12.0,,,,,,0.0,2.0,2.0,0.0,1.0,4.0,0.0,4.0,,,,2.0,,6.0,4.0,,3.0,1.0,1.0,1.0,0.0,0.0,0.0,0.0,0.0,0.0,0.0,0.0,20.0,8.0,3.0,I didn't want to put a lot of risk when I wouldn't profit from it.,There was a higher probability of getting bigger payout with the riskier decisions so I chose riskier for the last 6 or 7 decisions. whereas the chance of getting bigger payout was lower so I chose the less risky for the first 3.,9,1,1,0913,4,
10,22jyxmq0,0,25,24,Static_mechanism_better_2,Results,2021-09-13 20:49:48.772668,1,55.0,pozvojdo,0,0.1,Static_mechanism_better_2,0.0,10,55.0,2.0,2.0,2.0,1,0,0,0,0,0,2.0,1,0,0,0,0,0,4.0,4.0,,,,,,0.0,0.0,5.0,1.0,1.0,4.0,2.0,2.0,50.0,50.0,55.0,5.5,5.0,,,,6,15.5,0.0,0.0,,,4.0,4.0,4.0,0,1,0,4.0,1,0,8.0,8.0,,,,,,0.0,0.0,0.0,0.0,1.0,4.0,0.0,4.0,,,,3.0,,4.0,2.0,,2.0,1.0,1.0,1.0,1.0,0.0,0.0,0.0,0.0,0.0,0.0,0.0,18.0,2.0,0.0,"I would bid as high as the benefit (value) I would get. There was no profit to be made, but I would still bid if 4 value and 4 price. MR=MC ","Trying to maximize chances of winning, but also having some risk. ",10,1,1,0913,4,
11,3tt9398e,0,25,24,Static_mechanism_better_2,Results,2021-09-13 20:50:27.084124,1,68.0,pozvojdo,0,0.1,Static_mechanism_better_2,0.0,11,68.0,2.0,2.0,2.0,1,0,0,0,0,0,4.0,0,1,0,0,0,0,4.0,8.0,,,,,,0.0,2.0,18.0,1.0,1.0,4.0,2.0,2.0,50.0,52.0,68.0,6.8,16.0,,,,2,16.8,0.0,0.0,,,4.0,4.0,6.0,0,0,1,6.0,0,1,12.0,12.0,,,,,,2.0,2.0,4.0,1.0,1.0,8.0,4.0,4.0,,,,6.0,,12.0,2.0,,8.0,1.0,1.0,1.0,1.0,0.0,0.0,0.0,0.0,0.0,0.0,0.0,21.0,3.0,3.8,I made the decision by picking the same value as my secret number.,I made the decision by picking the largest number.,11,1,1,0913,4,
12,7ygcuysc,0,25,24,Static_mechanism_better_2,Results,2021-09-13 20:50:37.676756,1,82.0,pozvojdo,0,0.1,Static_mechanism_better_2,0.0,12,82.0,2.0,2.0,16.0,0,0,0,1,0,0,4.0,0,1,0,0,0,0,32.0,8.0,,,,,,14.0,2.0,32.0,1.0,1.0,4.0,2.0,2.0,64.0,66.0,82.0,8.2,16.0,,,,4,18.2,0.0,0.0,,,4.0,4.0,2.0,1,0,0,6.0,1,1,4.0,12.0,,,,,,0.0,2.0,2.0,0.0,1.0,4.0,0.0,4.0,,,,2.0,,7.0,10.0,,5.0,1.0,1.0,1.0,1.0,0.0,0.0,0.0,0.0,0.0,0.0,0.0,20.0,5.0,3.4,A bid higher than where the chances start to get too small an unlikely so greater change at getting the item if it was equal to or less.,A bid higher than the possible so its guaranteed to get the item.,12,1,1,0913,4,
2,4xxll5s3,0,37,36,Non_clairvoyant_dynamic,Results,2021-09-14 16:26:36.253951,1,61.0,bbp27rqb,0,0.1,Non_clairvoyant_dynamic,0.0,2,61.0,2.0,2.0,4.0,0,1,0,0,0,0,4.0,0,1,0,0,0,0,8.0,8.0,2.0,4.0,0.0,1.0,2.0,4.0,2.0,11.0,1.0,1.0,6.0,0.0,6.0,54.0,56.0,61.0,6.1,5.0,1.0,1.0,1.0,8,16.1,0.0,0.0,1.0,0.0,4.0,4.0,6.0,0,0,1,6.0,0,1,12.0,12.0,0.0,5.0,1.0,1.0,4.0,2.0,2.0,4.0,1.0,1.0,13.0,4.0,9.0,1.0,1.0,1.0,5.0,1.0,6.0,4.0,1.0,2.0,1.0,1.0,1.0,1.0,0.0,0.0,0.0,0.0,0.0,0.0,0.0,19.0,10.0,3.8,I usually chose the the middle of the integer options.,I also tended to choose the middle of the integer options.,2,1,1,0914,1,
3,gdnsy5w7,0,37,36,Non_clairvoyant_dynamic,Results,2021-09-14 16:26:45.482924,1,55.0,bbp27rqb,0,0.1,Non_clairvoyant_dynamic,0.0,3,55.0,2.0,2.0,2.0,1,0,0,0,0,0,2.0,1,0,0,0,0,0,4.0,4.0,4.0,3.0,1.0,1.0,2.0,0.0,0.0,5.0,1.0,1.0,7.0,2.0,5.0,50.0,50.0,55.0,5.5,5.0,1.0,1.0,1.0,9,15.5,0.0,0.0,1.0,0.0,4.0,4.0,6.0,0,0,1,4.0,1,0,12.0,8.0,0.0,5.0,0.0,0.0,0.0,6.0,-1.0,5.0,1.0,1.0,5.0,0.0,5.0,1.0,1.0,1.0,12.0,1.0,8.0,3.0,1.0,4.0,0.0,1.0,1.0,0.0,0.0,1.0,0.0,0.0,1.0,0.0,0.0,24.0,5.0,3.4,I looked  at the bid offers,I looked at the membership offers,3,1,1,0914,1,
5,3o2bqwbs,0,37,36,Non_clairvoyant_dynamic,Results,2021-09-14 16:27:03.965368,1,92.0,bbp27rqb,0,0.1,Non_clairvoyant_dynamic,0.0,5,92.0,2.0,2.0,4.0,0,1,0,0,0,0,32.0,0,0,0,0,1,0,8.0,64.0,2.0,4.0,0.0,1.0,2.0,4.0,30.0,42.0,1.0,1.0,6.0,0.0,6.0,54.0,84.0,92.0,9.2,8.0,1.0,1.0,1.0,8,19.2,0.0,0.0,1.0,0.0,4.0,4.0,2.0,1,0,0,6.0,0,1,4.0,12.0,3.0,2.0,1.0,0.0,3.0,0.0,1.0,1.0,0.0,1.0,5.0,0.0,5.0,0.0,1.0,1.0,2.0,1.0,6.0,4.0,1.0,32.0,1.0,0.0,1.0,1.0,1.0,0.0,0.0,1.0,0.0,1.0,0.0,22.0,5.0,7.5,maybe by working smart and focusing in secret price,by waiving the membership fee if the bid is higher,5,1,1,0914,1,
6,ufvv9uue,0,37,36,Non_clairvoyant_dynamic,Results,2021-09-14 16:27:11.560602,1,64.0,bbp27rqb,0,0.1,Non_clairvoyant_dynamic,0.0,6,64.0,2.0,2.0,2.0,1,0,0,0,0,0,2.0,1,0,0,0,0,0,4.0,4.0,2.0,4.0,0.0,0.0,2.0,2.0,-4.0,14.0,1.0,1.0,6.0,0.0,6.0,52.0,48.0,64.0,6.4,16.0,1.0,1.0,1.0,1,16.4,0.0,0.0,1.0,0.0,4.0,4.0,4.0,0,1,0,4.0,1,0,8.0,8.0,1.0,4.0,0.0,1.0,4.0,4.0,0.0,4.0,1.0,1.0,8.0,0.0,8.0,1.0,1.0,1.0,4.0,1.0,4.0,4.0,1.0,4.0,1.0,1.0,1.0,0.0,0.0,0.0,0.0,0.0,0.0,0.0,1.0,21.0,10.0,3.94,I didn't quite understand the first period in all honesty.,"As for the first period, I didn't quite understand the second period.  For the bonus rounds, I tried averaging out probabilities.",6,1,1,0914,1,
7,zfqkn9yf,0,37,36,Non_clairvoyant_dynamic,Results,2021-09-14 16:27:16.774785,1,57.0,bbp27rqb,0,0.1,Non_clairvoyant_dynamic,0.0,7,57.0,2.0,2.0,2.0,1,0,0,0,0,0,4.0,0,1,0,0,0,0,4.0,8.0,4.0,3.0,1.0,1.0,2.0,0.0,2.0,7.0,1.0,1.0,7.0,2.0,5.0,50.0,52.0,57.0,5.7,5.0,1.0,1.0,1.0,9,15.7,0.0,0.0,1.0,0.0,4.0,4.0,6.0,0,0,1,6.0,0,1,12.0,12.0,0.0,5.0,1.0,0.0,0.0,2.0,1.0,3.0,1.0,1.0,9.0,4.0,5.0,1.0,1.0,1.0,6.0,1.0,5.0,3.0,1.0,4.0,1.0,1.0,1.0,0.0,0.0,0.0,0.0,0.0,0.0,0.0,1.0,25.0,10.0,3.96,,,7,1,1,0914,1,
9,ntbkyicn,0,37,36,Non_clairvoyant_dynamic,Results,2021-09-14 16:27:27.702309,1,63.0,bbp27rqb,0,0.1,Non_clairvoyant_dynamic,0.0,9,63.0,2.0,2.0,2.0,1,0,0,0,0,0,4.0,0,1,0,0,0,0,4.0,8.0,4.0,3.0,1.0,0.0,4.0,0.0,-3.0,13.0,1.0,1.0,9.0,2.0,7.0,50.0,47.0,63.0,6.3,16.0,1.0,1.0,1.0,1,16.3,0.0,0.0,1.0,0.0,4.0,4.0,2.0,1,0,0,6.0,0,1,4.0,12.0,1.0,4.0,1.0,1.0,4.0,-2.0,2.0,0.0,1.0,1.0,12.0,4.0,8.0,1.0,1.0,1.0,4.0,1.0,7.0,3.0,1.0,5.0,1.0,1.0,1.0,1.0,0.0,0.0,0.0,0.0,0.0,0.0,1.0,25.0,10.0,3.63,Assessing risk against potential reward,Assessing risk against potential reward,9,1,1,0914,1,
10,hydm6pr7,0,37,36,Non_clairvoyant_dynamic,Results,2021-09-14 16:27:34.062783,1,58.0,bbp27rqb,0,0.1,Non_clairvoyant_dynamic,0.0,10,58.0,2.0,2.0,2.0,1,0,0,0,0,0,2.0,1,0,0,0,0,0,4.0,4.0,8.0,2.0,0.0,0.0,8.0,2.0,-2.0,8.0,1.0,0.0,2.0,0.0,2.0,52.0,50.0,58.0,5.8,8.0,1.0,1.0,0.0,6,15.8,0.0,0.0,1.0,0.0,4.0,4.0,6.0,0,0,1,6.0,0,1,12.0,12.0,0.0,5.0,0.0,1.0,4.0,6.0,2.0,8.0,1.0,1.0,9.0,0.0,9.0,1.0,1.0,1.0,7.0,1.0,7.0,2.0,1.0,3.0,1.0,1.0,1.0,1.0,1.0,0.0,0.0,0.0,0.0,0.0,1.0,20.0,7.0,,,,10,1,1,0914,1,
11,82z567qk,0,37,36,Non_clairvoyant_dynamic,Results,2021-09-14 16:27:40.827586,1,54.0,bbp27rqb,0,0.1,Non_clairvoyant_dynamic,0.0,11,54.0,2.0,2.0,4.0,0,1,0,0,0,0,2.0,1,0,0,0,0,0,8.0,4.0,4.0,3.0,1.0,0.0,4.0,2.0,-3.0,4.0,1.0,0.0,5.0,2.0,3.0,52.0,49.0,54.0,5.4,5.0,1.0,1.0,0.0,8,15.4,0.0,0.0,1.0,0.0,4.0,4.0,2.0,1,0,0,6.0,0,1,4.0,12.0,4.0,1.0,1.0,0.0,4.0,0.0,1.0,1.0,0.0,1.0,5.0,0.0,5.0,0.0,1.0,1.0,1.0,1.0,7.0,3.0,1.0,2.0,1.0,1.0,1.0,1.0,0.0,0.0,0.0,0.0,0.0,0.0,1.0,21.0,3.0,3.59,,,11,1,1,0914,1,
12,ax620ksq,0,37,36,Non_clairvoyant_dynamic,Results,2021-09-14 16:27:48.619283,1,66.0,bbp27rqb,0,0.1,Non_clairvoyant_dynamic,0.0,12,66.0,2.0,2.0,4.0,0,1,0,0,0,0,4.0,0,1,0,0,0,0,8.0,8.0,0.0,6.0,0.0,1.0,2.0,4.0,2.0,16.0,1.0,1.0,8.0,0.0,8.0,54.0,56.0,66.0,6.6,10.0,1.0,1.0,1.0,3,16.6,0.0,0.0,1.0,0.0,4.0,4.0,2.0,1,0,0,6.0,0,1,4.0,12.0,2.0,3.0,1.0,1.0,4.0,0.0,2.0,2.0,0.0,1.0,7.0,0.0,7.0,0.0,1.0,1.0,3.0,1.0,5.0,6.0,1.0,7.0,1.0,1.0,1.0,0.0,1.0,0.0,0.0,0.0,0.0,0.0,0.0,21.0,9.0,3.76,I thought about the average of the value of the items,I based my decision on the membership fee and tried to not go under the secret price,12,1,1,0914,1,
13,i8oc223e,0,37,36,Non_clairvoyant_dynamic,Results,2021-09-14 16:27:57.254444,1,55.0,bbp27rqb,0,0.1,Non_clairvoyant_dynamic,0.0,13,55.0,2.0,2.0,4.0,0,1,0,0,0,0,2.0,1,0,0,0,0,0,8.0,4.0,2.0,4.0,0.0,0.0,2.0,4.0,-4.0,5.0,1.0,1.0,6.0,0.0,6.0,54.0,50.0,55.0,5.5,5.0,1.0,1.0,1.0,9,15.5,0.0,0.0,1.0,0.0,4.0,4.0,2.0,1,0,0,6.0,0,1,4.0,12.0,1.0,4.0,1.0,1.0,4.0,-2.0,2.0,0.0,1.0,1.0,12.0,4.0,8.0,1.0,1.0,1.0,4.0,1.0,8.0,4.0,1.0,4.0,1.0,1.0,1.0,0.0,0.0,0.0,0.0,0.0,0.0,0.0,0.0,36.0,1.0,,,,13,1,1,0914,1,
15,j8jofkxm,0,37,36,Non_clairvoyant_dynamic,Results,2021-09-14 16:28:15.484317,1,85.0,bbp27rqb,0,0.1,Non_clairvoyant_dynamic,0.0,15,85.0,2.0,2.0,2.0,1,0,0,0,0,0,32.0,0,0,0,0,1,0,4.0,64.0,8.0,2.0,1.0,1.0,2.0,0.0,30.0,35.0,1.0,1.0,6.0,2.0,4.0,50.0,80.0,85.0,8.5,5.0,1.0,1.0,1.0,9,18.5,0.0,0.0,1.0,0.0,4.0,4.0,4.0,0,1,0,6.0,0,1,8.0,12.0,1.0,4.0,1.0,0.0,1.0,0.0,1.0,1.0,1.0,1.0,9.0,4.0,5.0,1.0,1.0,1.0,4.0,1.0,6.0,2.0,1.0,30.0,1.0,1.0,1.0,0.0,0.0,0.0,0.0,0.0,0.0,0.0,1.0,21.0,9.0,2.97,I chose the max number the price could be that would result in zero profit.,I chose the highest number that could result in zero profit taking into account the entrance fee,15,1,1,0914,1,
16,ye38gaaa,0,37,36,Non_clairvoyant_dynamic,Results,2021-09-14 16:28:20.759210,1,55.0,bbp27rqb,0,0.1,Non_clairvoyant_dynamic,0.0,16,55.0,2.0,2.0,4.0,0,1,0,0,0,0,2.0,1,0,0,0,0,0,8.0,4.0,2.0,4.0,0.0,0.0,2.0,4.0,-4.0,5.0,1.0,1.0,6.0,0.0,6.0,54.0,50.0,55.0,5.5,5.0,1.0,1.0,1.0,9,15.5,0.0,0.0,1.0,0.0,4.0,4.0,6.0,0,0,1,6.0,0,1,12.0,12.0,0.0,5.0,1.0,0.0,0.0,2.0,1.0,3.0,1.0,1.0,9.0,4.0,5.0,1.0,1.0,1.0,6.0,1.0,6.0,4.0,1.0,3.0,1.0,1.0,1.0,1.0,0.0,0.0,0.0,0.0,0.0,0.0,0.0,22.0,10.0,3.98,"I set the bid according to my value, and waited for the decision. ","I entered, hoping my value would be higher than the membership fee (which was not the case), and set a bid that was 1 above my value, as my value was very low. ",16,1,1,0914,1,
18,pry2bq28,0,37,36,Non_clairvoyant_dynamic,Results,2021-09-14 16:28:51.042147,1,60.0,bbp27rqb,0,0.1,Non_clairvoyant_dynamic,0.0,18,60.0,2.0,2.0,2.0,1,0,0,0,0,0,4.0,0,1,0,0,0,0,4.0,8.0,8.0,2.0,0.0,0.0,8.0,2.0,-2.0,10.0,1.0,0.0,2.0,0.0,2.0,52.0,50.0,60.0,6.0,10.0,1.0,1.0,0.0,5,16.0,0.0,0.0,1.0,0.0,4.0,4.0,2.0,1,0,0,4.0,1,0,4.0,8.0,2.0,3.0,1.0,1.0,4.0,0.0,0.0,0.0,0.0,1.0,7.0,0.0,7.0,0.0,1.0,1.0,3.0,1.0,4.0,2.0,1.0,4.0,1.0,0.0,0.0,1.0,1.0,0.0,0.0,1.0,0.0,1.0,0.0,20.0,9.0,2.5,It was more of a guess- the chances were fairly equal,"I chose to take the risk and go in, and chose the option I believed had the highest chance of success",18,1,1,0914,1,
19,bi6tcpnn,0,37,36,Non_clairvoyant_dynamic,Results,2021-09-14 16:28:56.167028,1,58.0,bbp27rqb,0,0.1,Non_clairvoyant_dynamic,0.0,19,58.0,2.0,2.0,4.0,0,1,0,0,0,0,2.0,1,0,0,0,0,0,8.0,4.0,8.0,2.0,1.0,0.0,8.0,2.0,-2.0,8.0,1.0,0.0,4.0,2.0,2.0,52.0,50.0,58.0,5.8,8.0,1.0,1.0,0.0,6,15.8,0.0,0.0,1.0,0.0,4.0,4.0,6.0,0,0,1,4.0,1,0,12.0,8.0,0.0,5.0,1.0,1.0,4.0,2.0,0.0,2.0,1.0,1.0,13.0,4.0,9.0,1.0,1.0,1.0,7.0,1.0,5.0,2.0,1.0,2.0,1.0,1.0,1.0,1.0,1.0,0.0,0.0,0.0,0.0,0.0,0.0,30.0,3.0,3.9,,,19,1,1,0914,1,
20,m67edmvk,0,37,36,Non_clairvoyant_dynamic,Results,2021-09-14 16:29:03.406803,1,55.0,bbp27rqb,0,0.1,Non_clairvoyant_dynamic,0.0,20,55.0,2.0,2.0,4.0,0,1,0,0,0,0,4.0,0,1,0,0,0,0,8.0,8.0,1.0,5.0,1.0,0.0,1.0,2.0,-2.0,5.0,1.0,1.0,8.0,2.0,6.0,52.0,50.0,55.0,5.5,5.0,1.0,1.0,1.0,6,15.5,0.0,0.0,1.0,0.0,4.0,4.0,4.0,0,1,0,6.0,0,1,8.0,12.0,0.0,5.0,1.0,0.0,0.0,0.0,1.0,1.0,1.0,1.0,9.0,4.0,5.0,1.0,1.0,1.0,5.0,1.0,7.0,5.0,1.0,6.0,1.0,1.0,1.0,0.0,0.0,0.0,0.0,0.0,0.0,0.0,0.0,19.0,3.0,,,,20,1,1,0914,1,
23,tlli1uzw,0,37,36,Non_clairvoyant_dynamic,Results,2021-09-14 16:29:45.755231,1,72.0,bbp27rqb,0,0.1,Non_clairvoyant_dynamic,0.0,23,72.0,2.0,2.0,2.0,1,0,0,0,0,0,16.0,0,0,0,1,0,0,4.0,32.0,16.0,1.0,1.0,1.0,2.0,0.0,14.0,22.0,0.0,1.0,3.0,0.0,3.0,50.0,64.0,72.0,7.2,8.0,0.0,1.0,0.0,6,17.2,0.0,0.0,1.0,0.0,4.0,4.0,2.0,1,0,0,6.0,0,1,4.0,12.0,3.0,2.0,1.0,1.0,4.0,0.0,2.0,2.0,0.0,1.0,6.0,0.0,6.0,0.0,1.0,1.0,2.0,1.0,8.0,1.0,1.0,15.0,1.0,1.0,1.0,1.0,1.0,1.0,0.0,0.0,0.0,0.0,1.0,21.0,5.0,3.88,Only bid the (worth of the item to you - 1) to ensure that at minimum you make 1 point of profit.,Only bid (the worth of the item to you - entry fee - 1) to ensure that at minimum you will make 1 point of profit.,23,1,1,0914,1,
1,e09nq1wk,0,37,36,Non_clairvoyant_dynamic_worse_2,Results,2021-09-14 19:12:45.964086,1,59.0,e5rgxdkc,0,0.1,Non_clairvoyant_dynamic_worse_2,0.0,1,59.0,2.0,2.0,2.0,1,0,0,0,0,0,4.0,0,1,0,0,0,0,4.0,8.0,0.0,3.0,1.0,0.0,0.0,0.0,1.0,9.0,1.0,1.0,5.0,2.0,3.0,50.0,51.0,59.0,5.9,8.0,1.0,1.0,1.0,7,15.9,0.0,0.0,1.0,0.0,4.0,4.0,2.0,1,0,0,6.0,0,1,4.0,12.0,1.0,4.0,0.0,1.0,4.0,2.0,2.0,4.0,1.0,1.0,8.0,0.0,8.0,1.0,1.0,1.0,4.0,1.0,12.0,4.0,1.0,6.0,1.0,1.0,1.0,1.0,1.0,0.0,0.0,0.0,0.0,0.0,1.0,31.0,4.0,3.34,I tried to bid the highest as there was no membership fee so i was going to get the item anyway,I paid the membership fee so I can get a chance to play and then went with a not too high number  ,1,1,1,0914,2,
2,0vh1cj0a,0,37,36,Non_clairvoyant_dynamic_worse_2,Results,2021-09-14 19:12:55.346761,1,64.0,e5rgxdkc,0,0.1,Non_clairvoyant_dynamic_worse_2,0.0,2,64.0,2.0,2.0,4.0,0,1,0,0,0,0,4.0,0,1,0,0,0,0,8.0,8.0,3.0,0.0,0.0,1.0,2.0,4.0,2.0,14.0,1.0,1.0,2.0,0.0,2.0,54.0,56.0,64.0,6.4,8.0,0.0,1.0,1.0,6,16.4,0.0,0.0,1.0,0.0,4.0,4.0,4.0,0,1,0,6.0,0,1,8.0,12.0,0.0,5.0,0.0,1.0,4.0,4.0,0.0,4.0,1.0,,0.0,0.0,0.0,1.0,0.0,0.0,5.0,0.0,,0.0,1.0,3.0,1.0,1.0,1.0,1.0,1.0,0.0,0.0,0.0,0.0,0.0,1.0,20.0,3.0,,,,2,1,1,0914,2,
3,sa10p9zp,0,37,36,Non_clairvoyant_dynamic_worse_2,Results,2021-09-14 19:13:12.201593,1,75.0,e5rgxdkc,0,0.1,Non_clairvoyant_dynamic_worse_2,0.0,3,75.0,2.0,2.0,16.0,1,0,0,1,0,0,2.0,1,0,0,0,0,0,32.0,4.0,0.0,3.0,0.0,0.0,0.0,16.0,-1.0,25.0,1.0,1.0,3.0,0.0,3.0,66.0,65.0,75.0,7.5,10.0,1.0,1.0,1.0,1,17.5,0.0,0.0,1.0,0.0,4.0,4.0,4.0,0,1,0,6.0,0,1,8.0,12.0,0.0,5.0,1.0,0.0,0.0,0.0,1.0,1.0,1.0,1.0,9.0,4.0,5.0,1.0,1.0,1.0,5.0,1.0,6.0,16.0,1.0,4.0,1.0,0.0,1.0,0.0,1.0,0.0,1.0,0.0,1.0,0.0,0.0,28.0,1.0,3.8,based on the info provided,based on the info provided,4,1,1,0914,2,
5,30iuammt,0,37,36,Non_clairvoyant_dynamic_worse_2,Results,2021-09-14 19:14:16.936826,1,73.0,e5rgxdkc,0,0.1,Non_clairvoyant_dynamic_worse_2,0.0,5,73.0,2.0,2.0,8.0,0,0,1,0,0,0,4.0,0,1,0,0,0,0,16.0,8.0,0.0,3.0,1.0,0.0,0.0,6.0,1.0,23.0,1.0,1.0,5.0,2.0,3.0,56.0,57.0,73.0,7.3,16.0,1.0,1.0,1.0,5,17.3,0.0,0.0,1.0,0.0,4.0,4.0,4.0,0,1,0,6.0,0,1,8.0,12.0,0.0,5.0,0.0,1.0,4.0,4.0,2.0,6.0,1.0,1.0,9.0,0.0,9.0,1.0,1.0,1.0,6.0,1.0,9.0,11.0,1.0,5.0,1.0,1.0,1.0,0.0,0.0,0.0,0.0,0.0,0.0,0.0,0.0,21.0,10.0,3.8,"Since I only had to pay the secret price, I wanted to bid higher than what the true  price was every round. The rest was honestly just gut feelings on which specific number to choose. ",Similar to the first period except I paid for the membership each time since I believed it to be  worth the price.,5,1,1,0914,2,
8,yhe5s5ok,0,37,36,Non_clairvoyant_dynamic_worse_2,Results,2021-09-14 19:14:45.513813,1,88.0,e5rgxdkc,0,0.1,Non_clairvoyant_dynamic_worse_2,0.0,8,88.0,2.0,2.0,32.0,0,0,0,0,1,0,4.0,0,1,0,0,0,0,64.0,8.0,0.0,3.0,0.0,0.0,0.0,32.0,1.0,38.0,1.0,1.0,3.0,0.0,3.0,82.0,83.0,88.0,8.8,5.0,1.0,1.0,1.0,6,18.8,0.0,0.0,1.0,0.0,4.0,4.0,2.0,1,0,0,4.0,1,0,4.0,8.0,2.0,3.0,1.0,1.0,4.0,0.0,0.0,0.0,0.0,1.0,7.0,0.0,7.0,0.0,1.0,1.0,3.0,1.0,6.0,15.0,1.0,4.0,0.0,1.0,0.0,1.0,0.0,1.0,0.0,1.0,0.0,1.0,0.0,21.0,9.0,3.39,By bidding closest to the secrets price,By paying the membership fee and bidding close to the secret price,8,1,1,0914,2,
9,xe5ty7yn,0,37,36,Non_clairvoyant_dynamic_worse_2,Results,2021-09-14 19:14:56.218158,1,67.0,e5rgxdkc,0,0.1,Non_clairvoyant_dynamic_worse_2,0.0,9,67.0,2.0,2.0,2.0,1,0,0,0,0,0,2.0,1,0,0,0,0,0,4.0,4.0,0.0,3.0,0.0,0.0,0.0,2.0,-1.0,17.0,1.0,1.0,3.0,0.0,3.0,52.0,51.0,67.0,6.7,16.0,1.0,1.0,1.0,1,16.7,0.0,0.0,1.0,0.0,4.0,4.0,2.0,1,0,0,6.0,0,1,4.0,12.0,3.0,2.0,1.0,1.0,4.0,0.0,2.0,2.0,0.0,1.0,6.0,0.0,6.0,0.0,1.0,1.0,2.0,1.0,12.0,4.0,1.0,4.0,1.0,1.0,0.0,0.0,0.0,0.0,0.0,0.0,0.0,0.0,1.0,24.0,3.0,2.65,I went on a gut feeling mostly.,I went on the probability I thought would net the most gains in points,9,1,1,0914,2,
10,vy0l8svh,0,37,36,Non_clairvoyant_dynamic_worse_2,Results,2021-09-14 19:15:06.110217,1,91.0,e5rgxdkc,0,0.1,Non_clairvoyant_dynamic_worse_2,0.0,10,91.0,2.0,2.0,32.0,0,0,0,0,1,0,4.0,0,1,0,0,0,0,64.0,8.0,0.0,3.0,1.0,0.0,0.0,30.0,1.0,41.0,1.0,1.0,5.0,2.0,3.0,80.0,81.0,91.0,9.1,10.0,1.0,1.0,1.0,3,19.1,0.0,0.0,1.0,0.0,4.0,4.0,6.0,0,0,1,4.0,1,0,12.0,8.0,0.0,5.0,0.0,0.0,0.0,6.0,-1.0,5.0,1.0,1.0,5.0,0.0,5.0,1.0,1.0,1.0,8.0,1.0,6.0,20.0,1.0,5.0,1.0,1.0,0.0,0.0,1.0,1.0,0.0,0.0,0.0,0.0,0.0,19.0,9.0,3.33,By comparing the numbers in the chart with the true value,"By comparing the numbers in the chart with the true value, I also did not care about the membership price",10,1,1,0914,2,
11,wktkopuj,0,37,36,Non_clairvoyant_dynamic_worse_2,Results,2021-09-14 19:15:14.318195,1,62.0,e5rgxdkc,0,0.1,Non_clairvoyant_dynamic_worse_2,0.0,11,62.0,2.0,2.0,4.0,0,1,0,0,0,0,2.0,1,0,0,0,0,0,8.0,4.0,0.0,3.0,1.0,1.0,2.0,2.0,0.0,12.0,1.0,1.0,7.0,2.0,5.0,52.0,52.0,62.0,6.2,10.0,1.0,1.0,1.0,5,16.2,0.0,0.0,1.0,0.0,4.0,4.0,4.0,0,1,0,4.0,1,0,8.0,8.0,0.0,5.0,0.0,1.0,4.0,4.0,0.0,4.0,1.0,1.0,9.0,0.0,9.0,1.0,1.0,1.0,8.0,1.0,6.0,6.0,1.0,3.0,1.0,1.0,1.0,1.0,1.0,0.0,0.0,0.0,0.0,0.0,1.0,23.0,3.0,,I tried to make higher bid to get the item,i entered the market and tried my luck,11,1,1,0914,2,
12,qcreueyf,0,37,36,Non_clairvoyant_dynamic_worse_2,Results,2021-09-14 19:15:24.402239,1,58.0,e5rgxdkc,0,0.1,Non_clairvoyant_dynamic_worse_2,0.0,12,58.0,2.0,2.0,2.0,1,0,0,0,0,0,4.0,0,1,0,0,0,0,4.0,8.0,0.0,3.0,0.0,0.0,0.0,2.0,1.0,8.0,1.0,1.0,3.0,0.0,3.0,52.0,53.0,58.0,5.8,5.0,1.0,1.0,1.0,9,15.8,0.0,0.0,1.0,0.0,4.0,4.0,2.0,1,0,0,6.0,0,1,4.0,12.0,2.0,3.0,0.0,1.0,4.0,2.0,2.0,4.0,1.0,1.0,7.0,0.0,7.0,0.0,1.0,1.0,3.0,1.0,8.0,3.0,1.0,6.0,1.0,1.0,1.0,1.0,0.0,0.0,0.0,0.0,0.0,0.0,0.0,21.0,10.0,3.21,"In the first period, I made my decisions based on how much of a chance I had to earn a higher number of points.",My decision making process in the second period is pretty much the same as before except that I took the membership fee into consideration this time.,12,1,1,0914,2,
13,5kopi4kh,0,37,36,Non_clairvoyant_dynamic_worse_2,Results,2021-09-14 19:15:31.721116,1,66.0,e5rgxdkc,0,0.1,Non_clairvoyant_dynamic_worse_2,0.0,13,66.0,2.0,2.0,4.0,0,1,0,0,0,0,4.0,0,1,0,0,0,0,8.0,8.0,0.0,3.0,0.0,1.0,2.0,4.0,2.0,16.0,1.0,1.0,5.0,0.0,5.0,54.0,56.0,66.0,6.6,10.0,1.0,1.0,1.0,5,16.6,0.0,0.0,1.0,0.0,4.0,4.0,2.0,1,0,0,6.0,0,1,4.0,12.0,1.0,4.0,1.0,0.0,1.0,-2.0,1.0,-1.0,1.0,1.0,9.0,4.0,5.0,1.0,1.0,1.0,4.0,1.0,4.0,4.0,1.0,4.0,1.0,1.0,1.0,1.0,1.0,1.0,0.0,0.0,0.0,0.0,0.0,19.0,5.0,4.0,i guessed,i guessed,13,1,1,0914,2,
14,ocuy6kyq,0,36,36,Non_clairvoyant_dynamic_worse_2,Results,2021-09-14 19:15:42.208804,1,58.0,e5rgxdkc,0,0.1,Non_clairvoyant_dynamic_worse_2,0.0,14,58.0,2.0,2.0,2.0,1,0,0,0,0,0,4.0,0,1,0,0,0,0,4.0,8.0,0.0,3.0,0.0,0.0,0.0,2.0,1.0,8.0,1.0,1.0,3.0,0.0,3.0,52.0,53.0,58.0,5.8,5.0,1.0,1.0,1.0,7,15.8,0.0,0.0,1.0,0.0,4.0,4.0,4.0,0,1,0,6.0,0,1,8.0,12.0,3.0,2.0,1.0,1.0,4.0,0.0,2.0,2.0,0.0,1.0,6.0,0.0,6.0,0.0,1.0,1.0,2.0,1.0,6.0,4.0,1.0,6.0,1.0,1.0,1.0,1.0,0.0,0.0,0.0,0.0,0.0,0.0,1.0,25.0,5.0,,,,14,1,1,0914,2,
15,f3eh1wt4,0,37,36,Non_clairvoyant_dynamic_worse_2,Results,2021-09-14 19:15:53.792784,1,62.0,e5rgxdkc,0,0.1,Non_clairvoyant_dynamic_worse_2,0.0,15,62.0,2.0,2.0,2.0,1,0,0,0,0,0,4.0,0,1,0,0,0,0,4.0,8.0,0.0,3.0,1.0,1.0,2.0,0.0,2.0,12.0,1.0,1.0,7.0,2.0,5.0,50.0,52.0,62.0,6.2,10.0,1.0,1.0,1.0,5,16.2,0.0,0.0,1.0,0.0,4.0,4.0,4.0,0,1,0,6.0,0,1,8.0,12.0,0.0,5.0,0.0,0.0,0.0,4.0,1.0,5.0,1.0,1.0,5.0,0.0,5.0,1.0,1.0,1.0,7.0,1.0,12.0,4.0,1.0,7.0,1.0,1.0,1.0,0.0,1.0,0.0,0.0,0.0,0.0,0.0,1.0,19.0,8.0,,"Because you got the item based on if the bid was higher or equal to, I would bid higher to receive the item. ",I payed for the membership for the game to keep going. I also bided higher to receive the item. ,15,1,1,0914,2,
16,cxeugwcd,0,37,36,Non_clairvoyant_dynamic_worse_2,Results,2021-09-14 19:16:10.717074,1,66.0,e5rgxdkc,0,0.1,Non_clairvoyant_dynamic_worse_2,0.0,16,66.0,2.0,2.0,8.0,0,0,1,0,0,0,2.0,1,0,0,0,0,0,16.0,4.0,0.0,3.0,0.0,1.0,2.0,8.0,0.0,16.0,1.0,1.0,5.0,0.0,5.0,58.0,58.0,66.0,6.6,8.0,1.0,1.0,1.0,6,16.6,0.0,0.0,1.0,0.0,4.0,4.0,4.0,0,1,0,4.0,1,0,8.0,8.0,1.0,4.0,1.0,1.0,4.0,0.0,0.0,0.0,1.0,1.0,12.0,4.0,8.0,1.0,1.0,1.0,4.0,1.0,4.0,8.0,1.0,2.0,1.0,1.0,0.0,0.0,1.0,1.0,0.0,0.0,1.0,0.0,1.0,23.0,10.0,,,,16,1,1,0914,2,
17,wclgawo5,0,37,36,Non_clairvoyant_dynamic_worse_2,Results,2021-09-14 19:16:18.940882,1,76.0,e5rgxdkc,0,0.1,Non_clairvoyant_dynamic_worse_2,0.0,17,76.0,2.0,2.0,16.0,0,0,0,1,0,0,4.0,0,1,0,0,0,0,32.0,8.0,0.0,3.0,0.0,1.0,2.0,16.0,2.0,26.0,1.0,1.0,5.0,0.0,5.0,66.0,68.0,76.0,7.6,8.0,1.0,1.0,1.0,7,17.6,0.0,0.0,1.0,0.0,4.0,4.0,2.0,1,0,0,4.0,1,0,4.0,8.0,2.0,3.0,1.0,0.0,2.0,0.0,-1.0,-1.0,0.0,1.0,5.0,0.0,5.0,0.0,1.0,1.0,3.0,1.0,5.0,5.0,1.0,3.0,1.0,0.0,1.0,0.0,1.0,0.0,1.0,0.0,1.0,0.0,1.0,25.0,5.0,,,,17,1,1,0914,2,
1,hpy7uuhi,0,25,24,Static_mechanism_worse_1,Results,2021-09-14 17:47:53.966670,1,60.0,euvcknah,0,0.1,Static_mechanism_worse_1,0.0,1,60.0,2.0,2.0,2.0,1,0,0,0,0,0,2.0,1,0,0,0,0,0,4.0,4.0,,,,,,0.0,0.0,10.0,1.0,1.0,4.0,2.0,2.0,50.0,50.0,60.0,6.0,10.0,,,,5,16.0,0.0,0.0,,,4.0,4.0,6.0,0,0,1,6.0,0,1,12.0,12.0,,,,,,2.0,2.0,4.0,1.0,1.0,8.0,4.0,4.0,,,,6.0,,12.0,2.0,,2.0,1.0,1.0,1.0,1.0,1.0,1.0,1.0,0.0,0.0,0.0,0.0,20.0,2.0,3.05,I based my decisions by the value and not giving up more than what I had.,I based my decisions on the amount of points I would be risking.,1,1,1,0914,3,
2,96vhltur,0,25,24,Static_mechanism_worse_1,Results,2021-09-14 17:48:09.180570,1,74.0,euvcknah,0,0.1,Static_mechanism_worse_1,0.0,2,74.0,2.0,2.0,4.0,0,1,0,0,0,0,8.0,0,0,1,0,0,0,8.0,16.0,,,,,,2.0,6.0,24.0,1.0,1.0,4.0,2.0,2.0,52.0,58.0,74.0,7.4,16.0,,,,5,17.4,0.0,0.0,,,4.0,4.0,4.0,0,1,0,4.0,1,0,8.0,8.0,,,,,,0.0,0.0,0.0,1.0,1.0,8.0,4.0,4.0,,,,5.0,,4.0,2.0,,4.0,1.0,0.0,1.0,1.0,0.0,1.0,0.0,0.0,1.0,0.0,0.0,25.0,5.0,3.4,Based on true value greater than secret price,50 chance for true value to secret price,2,1,1,0914,3,
4,2kpdlt9g,0,25,24,Static_mechanism_worse_1,Results,2021-09-14 17:48:27.526759,1,62.0,euvcknah,0,0.1,Static_mechanism_worse_1,0.0,4,62.0,2.0,2.0,4.0,0,1,0,0,0,0,4.0,0,1,0,0,0,0,8.0,8.0,,,,,,2.0,2.0,12.0,1.0,1.0,4.0,2.0,2.0,52.0,54.0,62.0,6.2,8.0,,,,6,16.2,0.0,0.0,,,4.0,4.0,6.0,0,0,1,4.0,1,0,12.0,8.0,,,,,,2.0,0.0,2.0,1.0,1.0,8.0,4.0,4.0,,,,4.0,,5.0,2.0,,4.0,1.0,1.0,1.0,0.0,1.0,0.0,0.0,0.0,0.0,0.0,1.0,19.0,5.0,3.4,I made it based off the 50/50 most likely leading to the lower points number.,I made it based off the numbers thinking the weight would go higher since higher numbers were in play bringing the average number up.,4,1,1,0914,3,
6,ine6ere8,0,25,24,Static_mechanism_worse_1,Results,2021-09-14 17:48:47.422970,1,55.0,euvcknah,0,0.1,Static_mechanism_worse_1,0.0,6,55.0,2.0,2.0,2.0,1,0,0,0,0,0,2.0,1,0,0,0,0,0,4.0,4.0,,,,,,0.0,0.0,5.0,1.0,1.0,4.0,2.0,2.0,50.0,50.0,55.0,5.5,5.0,,,,9,15.5,0.0,0.0,,,4.0,4.0,6.0,0,0,1,6.0,0,1,12.0,12.0,,,,,,2.0,2.0,4.0,1.0,1.0,8.0,4.0,4.0,,,,6.0,,12.0,4.0,,2.0,1.0,1.0,1.0,1.0,0.0,0.0,0.0,0.0,0.0,0.0,0.0,22.0,8.0,,,,6,1,1,0914,3,
8,awowm48g,0,25,24,Static_mechanism_worse_1,Results,2021-09-14 17:49:05.442187,1,55.0,euvcknah,0,0.1,Static_mechanism_worse_1,0.0,8,55.0,2.0,2.0,2.0,1,0,0,0,0,0,2.0,1,0,0,0,0,0,4.0,4.0,,,,,,0.0,0.0,5.0,1.0,1.0,4.0,2.0,2.0,50.0,50.0,55.0,5.5,5.0,,,,6,15.5,0.0,0.0,,,4.0,4.0,6.0,0,0,1,6.0,0,1,12.0,12.0,,,,,,2.0,2.0,4.0,1.0,1.0,8.0,4.0,4.0,,,,7.0,,7.0,3.0,,4.0,1.0,1.0,1.0,1.0,0.0,0.0,0.0,0.0,0.0,0.0,1.0,22.0,8.0,3.2,Tried to bid the lowest possible.,By bidding the max number.,8,1,1,0914,3,
9,zqkywrki,0,25,24,Static_mechanism_worse_1,Results,2021-09-14 17:49:13.836985,1,62.0,euvcknah,0,0.1,Static_mechanism_worse_1,0.0,9,62.0,2.0,2.0,2.0,1,0,0,0,0,0,4.0,0,1,0,0,0,0,4.0,8.0,,,,,,0.0,2.0,12.0,1.0,1.0,4.0,2.0,2.0,50.0,52.0,62.0,6.2,10.0,,,,1,16.2,0.0,0.0,,,4.0,4.0,4.0,0,1,0,4.0,1,1,8.0,8.0,,,,,,0.0,0.0,0.0,1.0,1.0,8.0,4.0,4.0,,,,7.0,,6.0,3.0,,6.0,0.0,1.0,0.0,0.0,1.0,1.0,0.0,0.0,1.0,0.0,0.0,21.0,8.0,3.1,I kept in mind that even if my  number higher i would still get the item,Randomly choose,9,1,1,0914,3,
10,xkbqv4u2,0,25,24,Static_mechanism_worse_1,Results,2021-09-14 17:49:20.928916,1,55.0,euvcknah,0,0.1,Static_mechanism_worse_1,0.0,10,55.0,2.0,2.0,2.0,1,0,0,0,0,0,2.0,1,0,0,0,0,0,4.0,4.0,,,,,,0.0,0.0,5.0,1.0,1.0,4.0,2.0,2.0,50.0,50.0,55.0,5.5,5.0,,,,8,15.5,0.0,0.0,,,4.0,4.0,6.0,0,0,1,4.0,1,1,12.0,8.0,,,,,,2.0,0.0,2.0,1.0,1.0,8.0,4.0,4.0,,,,8.0,,5.0,4.0,,2.0,1.0,0.0,0.0,0.0,0.0,1.0,1.0,0.0,0.0,1.0,0.0,22.0,5.0,,,,10,1,1,0914,3,
11,piq4r2ya,0,25,24,Static_mechanism_worse_1,Results,2021-09-14 17:49:31.414225,1,62.0,euvcknah,0,0.1,Static_mechanism_worse_1,0.0,11,62.0,2.0,2.0,4.0,0,1,0,0,0,0,2.0,1,0,0,0,0,0,8.0,4.0,,,,,,2.0,0.0,12.0,1.0,1.0,4.0,2.0,2.0,52.0,52.0,62.0,6.2,10.0,,,,1,16.2,0.0,0.0,,,4.0,4.0,2.0,1,0,0,6.0,0,1,4.0,12.0,,,,,,0.0,2.0,2.0,0.0,1.0,4.0,0.0,4.0,,,,1.0,,5.0,5.0,,2.0,0.0,0.0,1.0,0.0,1.0,1.0,1.0,1.0,0.0,1.0,0.0,21.0,8.0,3.44,Look at the value then determine how much to bid for,Look at the value then determine how much to bid for,11,1,1,0914,3,
12,nxca8e87,0,25,24,Static_mechanism_worse_1,Results,2021-09-14 17:49:39.486517,1,60.0,euvcknah,0,0.1,Static_mechanism_worse_1,0.0,12,60.0,2.0,2.0,4.0,0,1,0,0,0,0,2.0,1,0,0,0,0,0,8.0,4.0,,,,,,2.0,0.0,10.0,1.0,1.0,4.0,2.0,2.0,52.0,52.0,60.0,6.0,8.0,,,,7,16.0,0.0,0.0,,,4.0,4.0,6.0,0,0,1,4.0,1,0,12.0,8.0,,,,,,2.0,0.0,2.0,1.0,0.0,4.0,4.0,0.0,,,,8.0,,3.0,5.0,,3.0,0.0,0.0,0.0,1.0,1.0,1.0,1.0,1.0,1.0,1.0,0.0,21.0,2.0,3.5,Randomly,As the probability increased I choose the more profitable option,12,1,1,0914,3,
13,krursgo8,0,25,24,Static_mechanism_worse_1,Results,2021-09-14 17:49:47.162960,1,70.0,euvcknah,0,0.1,Static_mechanism_worse_1,0.0,13,70.0,2.0,2.0,4.0,0,1,0,0,0,0,4.0,0,1,0,0,0,0,8.0,8.0,,,,,,2.0,2.0,20.0,1.0,1.0,4.0,2.0,2.0,52.0,54.0,70.0,7.0,16.0,,,,5,17.0,0.0,0.0,,,4.0,4.0,6.0,0,0,1,6.0,0,1,12.0,12.0,,,,,,2.0,2.0,4.0,1.0,1.0,8.0,4.0,4.0,,,,7.0,,6.0,5.0,,7.0,1.0,0.0,1.0,1.0,0.0,0.0,1.0,1.0,0.0,0.0,0.0,21.0,8.0,3.5,I made the decision in the first period using only numbers that were greater than 4. I assumed that the secret value was less. ,I made the decision in the second period by using what seemed more favorable and likely. ,13,1,1,0914,3,
14,6r84hc9h,0,25,24,Static_mechanism_worse_1,Results,2021-09-14 17:49:55.426472,1,72.0,euvcknah,0,0.1,Static_mechanism_worse_1,0.0,14,72.0,2.0,2.0,2.0,1,0,0,0,0,0,8.0,0,0,1,0,0,0,4.0,16.0,,,,,,0.0,6.0,22.0,1.0,1.0,4.0,2.0,2.0,50.0,56.0,72.0,7.2,16.0,,,,5,17.2,0.0,0.0,,,4.0,4.0,4.0,0,1,0,4.0,1,1,8.0,8.0,,,,,,0.0,0.0,0.0,1.0,1.0,8.0,4.0,4.0,,,,4.0,,4.0,2.0,,6.0,1.0,1.0,1.0,1.0,0.0,0.0,0.0,0.0,0.0,0.0,1.0,18.0,7.0,,I chose my personal value,"I chose a number that I thought was assigned to me, based off of a gut feeling.",14,1,1,0914,3,
15,hpn7nq5x,0,25,24,Static_mechanism_worse_1,Results,2021-09-14 17:50:07.246205,1,58.0,euvcknah,0,0.1,Static_mechanism_worse_1,0.0,15,58.0,2.0,2.0,2.0,1,0,0,0,0,0,2.0,1,0,0,0,0,0,4.0,4.0,,,,,,0.0,0.0,8.0,1.0,1.0,4.0,2.0,2.0,50.0,50.0,58.0,5.8,8.0,,,,8,15.8,0.0,0.0,,,4.0,4.0,6.0,0,0,1,4.0,1,0,12.0,8.0,,,,,,2.0,0.0,2.0,1.0,1.0,8.0,4.0,4.0,,,,9.0,,6.0,4.0,,4.0,1.0,0.0,0.0,1.0,1.0,1.0,0.0,0.0,0.0,0.0,0.0,21.0,8.0,,,,15,1,1,0914,3,
16,t0p553t1,0,25,24,Static_mechanism_worse_1,Results,2021-09-14 17:50:16.676190,1,55.0,euvcknah,0,0.1,Static_mechanism_worse_1,0.0,16,55.0,2.0,2.0,2.0,1,0,0,0,0,0,2.0,1,0,0,0,0,0,4.0,4.0,,,,,,0.0,0.0,5.0,1.0,1.0,4.0,2.0,2.0,50.0,50.0,55.0,5.5,5.0,,,,9,15.5,0.0,0.0,,,4.0,4.0,2.0,1,0,0,4.0,1,0,4.0,8.0,,,,,,0.0,0.0,0.0,0.0,1.0,4.0,0.0,4.0,,,,3.0,,8.0,4.0,,2.0,1.0,1.0,1.0,1.0,0.0,1.0,1.0,0.0,1.0,1.0,0.0,21.0,8.0,3.7,Based off highest percentage in chart.,Based off highest percentage in chart.,16,1,1,0914,3,
1,4yvlnij9,0,25,24,Static_mechanism_better_2,Results,2021-09-14 20:55:09.373623,1,68.0,wfvi32jv,0,0.1,Static_mechanism_better_2,0.0,1,68.0,2.0,2.0,2.0,1,0,0,0,0,0,4.0,0,1,0,0,0,0,4.0,8.0,,,,,,0.0,2.0,18.0,1.0,1.0,4.0,2.0,2.0,50.0,52.0,68.0,6.8,16.0,,,,2,16.8,0.0,0.0,,,4.0,4.0,4.0,0,1,0,6.0,0,1,8.0,12.0,,,,,,0.0,2.0,2.0,1.0,1.0,8.0,4.0,4.0,,,,6.0,,8.0,2.0,,6.0,1.0,0.0,0.0,1.0,0.0,1.0,0.0,0.0,1.0,0.0,1.0,23.0,5.0,,,,1,1,1,0914,4,
2,d5y0cac3,0,25,24,Static_mechanism_better_2,Results,2021-09-14 20:55:24.888196,1,57.0,wfvi32jv,0,0.1,Static_mechanism_better_2,0.0,2,57.0,2.0,2.0,2.0,1,0,0,0,0,0,4.0,0,1,0,0,0,0,4.0,8.0,,,,,,0.0,2.0,7.0,0.0,1.0,2.0,0.0,2.0,50.0,52.0,57.0,5.7,5.0,,,,6,15.7,0.0,0.0,,,4.0,4.0,2.0,1,0,0,6.0,0,1,4.0,12.0,,,,,,0.0,2.0,2.0,0.0,1.0,4.0,0.0,4.0,,,,2.0,,6.0,0.0,,6.0,1.0,1.0,1.0,1.0,0.0,0.0,0.0,0.0,0.0,0.0,1.0,20.0,1.0,,,,2,1,1,0914,4,
3,w7h4jcqo,0,25,24,Static_mechanism_better_2,Results,2021-09-14 20:55:33.768452,1,64.0,wfvi32jv,0,0.1,Static_mechanism_better_2,0.0,3,64.0,2.0,2.0,8.0,0,0,1,0,0,0,2.0,1,0,0,0,0,0,16.0,4.0,,,,,,6.0,0.0,14.0,1.0,1.0,4.0,2.0,2.0,56.0,56.0,64.0,6.4,8.0,,,,9,16.4,0.0,0.0,,,4.0,4.0,2.0,1,0,0,6.0,0,1,4.0,12.0,,,,,,0.0,2.0,2.0,0.0,1.0,4.0,0.0,4.0,,,,3.0,,9.0,8.0,,3.0,1.0,1.0,1.0,1.0,1.0,1.0,0.0,0.0,0.0,0.0,1.0,22.0,5.0,3.2,"I was trying to take some risk but still be somewhat conservative, in the event that I had bid too low I wouldn't have lost all of my money",I was willing to risk using more points for a higher chance of making some profit,3,1,1,0914,4,
6,vtfze0ps,0,25,24,Static_mechanism_better_2,Results,2021-09-14 20:56:00.317617,1,62.0,wfvi32jv,0,0.1,Static_mechanism_better_2,0.0,6,62.0,2.0,2.0,4.0,0,1,0,0,0,0,2.0,1,0,0,0,0,0,8.0,4.0,,,,,,2.0,0.0,12.0,1.0,1.0,4.0,2.0,2.0,52.0,52.0,62.0,6.2,10.0,,,,4,16.2,0.0,0.0,,,4.0,4.0,6.0,0,0,1,4.0,1,0,12.0,8.0,,,,,,2.0,0.0,2.0,1.0,1.0,8.0,4.0,4.0,,,,4.0,,6.0,8.0,,4.0,1.0,1.0,1.0,1.0,1.0,0.0,0.0,0.0,0.0,0.0,0.0,36.0,2.0,3.0,I decided to pick option A with the lower chances,I decided to pick option B with the higher chances,6,1,1,0914,4,
7,onv90eez,0,25,24,Static_mechanism_better_2,Results,2021-09-14 20:56:08.698488,1,59.0,wfvi32jv,0,0.1,Static_mechanism_better_2,0.0,7,59.0,2.0,2.0,4.0,0,1,0,0,0,0,4.0,0,1,0,0,0,0,8.0,8.0,,,,,,2.0,2.0,9.0,1.0,1.0,4.0,2.0,2.0,52.0,54.0,59.0,5.9,5.0,,,,6,15.9,0.0,0.0,,,4.0,4.0,6.0,0,0,1,6.0,0,1,12.0,12.0,,,,,,2.0,2.0,4.0,1.0,1.0,8.0,4.0,4.0,,,,7.0,,6.0,8.0,,8.0,1.0,1.0,1.0,0.0,0.0,0.0,0.0,0.0,0.0,0.0,1.0,21.0,2.0,3.8,"I personally chose to always bet higher than my given value because if I bet too low, there was a chance of failure but betting high allowed me to have the best chance.",I used the same strategy as the first period but I paid close attention to the breakdown on the pie charts.,7,1,1,0914,4,
8,m24hdvw7,0,25,24,Static_mechanism_better_2,Results,2021-09-14 20:56:17.033079,1,68.0,wfvi32jv,0,0.1,Static_mechanism_better_2,0.0,8,68.0,2.0,2.0,2.0,1,0,0,0,0,0,4.0,0,1,0,0,0,0,4.0,8.0,,,,,,0.0,2.0,18.0,1.0,1.0,4.0,2.0,2.0,50.0,52.0,68.0,6.8,16.0,,,,1,16.8,0.0,0.0,,,4.0,4.0,2.0,1,0,0,4.0,1,0,4.0,8.0,,,,,,-2.0,0.0,-2.0,1.0,1.0,8.0,4.0,4.0,,,,4.0,,5.0,3.0,,4.0,1.0,1.0,0.0,0.0,0.0,0.0,0.0,0.0,0.0,0.0,1.0,19.0,2.0,,Trying to find a sweet spot in between the risk of not getting the item by underbidding and having negative points by overbidding.,I only accepted the risk of getting 5 points instead of a safer 10 or 8 when the chance of getting 16 points was at 30%,8,1,1,0914,4,
9,a0tahf86,0,25,24,Static_mechanism_better_2,Results,2021-09-14 20:56:25.333537,1,72.0,wfvi32jv,0,0.1,Static_mechanism_better_2,0.0,9,72.0,2.0,2.0,8.0,0,0,1,0,0,0,2.0,1,0,0,0,0,0,16.0,4.0,,,,,,6.0,0.0,22.0,1.0,1.0,4.0,2.0,2.0,56.0,56.0,72.0,7.2,16.0,,,,5,17.2,0.0,0.0,,,4.0,4.0,2.0,1,0,0,6.0,1,1,4.0,12.0,,,,,,0.0,2.0,2.0,0.0,1.0,4.0,0.0,4.0,,,,2.0,,7.0,7.0,,3.0,1.0,1.0,1.0,0.0,0.0,0.0,0.0,0.0,0.0,0.0,0.0,22.0,8.0,3.2,I did 1 over my true value,I looked at the probability of the profits for both choices a and b. If a have more gain and the probability was less than 5/10 I would choose a. If the probability was more than 5/10 and had more gain then I would choose option b. ,9,1,1,0914,4,
10,t8pzi6vq,0,25,24,Static_mechanism_better_2,Results,2021-09-14 20:56:32.969477,1,66.0,wfvi32jv,0,0.1,Static_mechanism_better_2,0.0,10,66.0,2.0,2.0,2.0,1,0,0,0,0,0,2.0,1,0,0,0,0,0,4.0,4.0,,,,,,0.0,0.0,16.0,1.0,1.0,4.0,2.0,2.0,50.0,50.0,66.0,6.6,16.0,,,,4,16.6,0.0,0.0,,,4.0,4.0,4.0,0,1,0,4.0,1,1,8.0,8.0,,,,,,0.0,0.0,0.0,1.0,1.0,8.0,4.0,4.0,,,,6.0,,6.0,4.0,,3.0,1.0,1.0,1.0,1.0,0.0,0.0,0.0,0.0,0.0,0.0,0.0,20.0,8.0,3.6,"It was kind of confusing because i assumed if i bid more money, I would get the item thus getting more points so thats how I based it off",Similar to the first,10,1,1,0914,4,
11,98x9s3jh,0,25,24,Static_mechanism_better_2,Results,2021-09-14 20:56:49.142494,1,60.0,wfvi32jv,0,0.1,Static_mechanism_better_2,0.0,11,60.0,2.0,2.0,2.0,1,0,0,0,0,0,2.0,1,0,0,0,0,0,4.0,4.0,,,,,,0.0,0.0,10.0,0.0,1.0,2.0,0.0,2.0,50.0,50.0,60.0,6.0,10.0,,,,5,16.0,0.0,0.0,,,4.0,4.0,4.0,0,1,0,4.0,1,0,8.0,8.0,,,,,,0.0,0.0,0.0,1.0,1.0,8.0,4.0,4.0,,,,8.0,,6.0,1.0,,3.0,1.0,1.0,1.0,1.0,1.0,1.0,1.0,1.0,0.0,0.0,1.0,19.0,3.0,3.5,I didn't bother bidding much since there was almost no profit for the first period,The second period I bid more since I could make more of a profit and it was the last period to bid. ,11,1,1,0914,4,
12,p4o2mwvn,0,25,24,Static_mechanism_better_2,Results,2021-09-14 20:56:58.095771,1,58.0,wfvi32jv,0,0.1,Static_mechanism_better_2,0.0,12,58.0,2.0,2.0,2.0,1,0,0,0,0,0,2.0,1,0,0,0,0,0,4.0,4.0,,,,,,0.0,0.0,8.0,1.0,0.0,2.0,2.0,0.0,50.0,50.0,58.0,5.8,8.0,,,,10,15.8,0.0,0.0,,,4.0,4.0,2.0,1,0,0,4.0,1,1,4.0,8.0,,,,,,0.0,0.0,0.0,0.0,1.0,4.0,0.0,4.0,,,,1.0,,6.0,2.0,,1.0,0.0,0.0,0.0,1.0,1.0,1.0,1.0,0.0,0.0,1.0,0.0,20.0,8.0,3.5,I just picked lucky number,I thought about the chances,12,1,1,0914,4,
13,0un20yx0,0,25,24,Static_mechanism_better_2,Results,2021-09-14 20:57:06.078703,1,74.0,wfvi32jv,0,0.1,Static_mechanism_better_2,0.0,13,74.0,2.0,2.0,8.0,0,0,1,0,0,0,4.0,0,1,0,0,0,0,16.0,8.0,,,,,,6.0,2.0,24.0,1.0,1.0,4.0,2.0,2.0,56.0,58.0,74.0,7.4,16.0,,,,3,17.4,0.0,0.0,,,4.0,4.0,6.0,0,0,1,4.0,1,0,12.0,8.0,,,,,,2.0,0.0,2.0,1.0,0.0,4.0,4.0,0.0,,,,5.0,,3.0,6.0,,4.0,1.0,1.0,1.0,1.0,0.0,0.0,0.0,0.0,0.0,0.0,0.0,20.0,2.0,3.7,I tried to bid a somewhat high amount but not too high.,I bid 4 pts since the true value was between 2-4.,13,1,1,0914,4,
14,wg7fhp7q,0,25,24,Static_mechanism_better_2,Results,2021-09-14 20:57:23.053158,1,55.0,wfvi32jv,0,0.1,Static_mechanism_better_2,0.0,14,55.0,2.0,2.0,2.0,1,0,0,0,0,0,2.0,1,0,0,0,0,0,4.0,4.0,,,,,,0.0,0.0,5.0,1.0,1.0,4.0,2.0,2.0,50.0,50.0,55.0,5.5,5.0,,,,6,15.5,0.0,0.0,,,4.0,4.0,2.0,1,0,0,6.0,0,1,4.0,12.0,,,,,,0.0,2.0,2.0,0.0,1.0,4.0,0.0,4.0,,,,2.0,,6.0,2.0,,2.0,1.0,1.0,1.0,0.0,0.0,0.0,0.0,0.0,0.0,0.0,0.0,22.0,10.0,,"I bid the max amount I was willing to pay, so that I would never have to pay over my private value. This way, as I would not pay my bid but the seller's value, I could only have gains or stay the same.",I chose the option with maximum expected value.,14,1,1,0914,4,
15,yvfgshgs,0,25,24,Static_mechanism_better_2,Results,2021-09-14 20:57:35.138004,1,64.0,wfvi32jv,0,0.1,Static_mechanism_better_2,0.0,15,64.0,2.0,2.0,8.0,0,0,1,0,0,0,2.0,1,0,0,0,0,0,16.0,4.0,,,,,,6.0,0.0,14.0,1.0,1.0,4.0,2.0,2.0,56.0,56.0,64.0,6.4,8.0,,,,9,16.4,0.0,0.0,,,4.0,4.0,6.0,0,0,1,4.0,1,1,12.0,8.0,,,,,,2.0,0.0,2.0,1.0,1.0,8.0,4.0,4.0,,,,7.0,,6.0,14.0,,4.0,0.0,1.0,1.0,1.0,1.0,1.0,1.0,1.0,1.0,0.0,0.0,23.0,5.0,,,,15,1,1,0914,4,
17,hjgk1mdl,0,25,24,Static_mechanism_better_2,Results,2021-09-14 20:57:52.388325,1,66.0,wfvi32jv,0,0.1,Static_mechanism_better_2,0.0,17,66.0,2.0,2.0,2.0,1,0,0,0,0,0,2.0,1,0,0,0,0,0,4.0,4.0,,,,,,0.0,0.0,16.0,1.0,1.0,4.0,2.0,2.0,50.0,50.0,66.0,6.6,16.0,,,,4,16.6,0.0,0.0,,,4.0,4.0,4.0,0,1,0,4.0,1,1,8.0,8.0,,,,,,0.0,0.0,0.0,1.0,1.0,8.0,4.0,4.0,,,,8.0,,6.0,4.0,,4.0,0.0,0.0,0.0,0.0,0.0,1.0,1.0,1.0,1.0,1.0,0.0,21.0,7.0,3.7,,,17,1,1,0914,4,
1,spyisqbw,0,37,36,Non_clairvoyant_dynamic,Results,2021-09-26 16:30:59.911612,1,66.0,5kbhy2vn,0,0.1,Non_clairvoyant_dynamic,0.0,1,66.0,2.0,2.0,2.0,1,0,0,0,0,0,2.0,1,0,0,0,0,0,4.0,4.0,8.0,2.0,1.0,1.0,2.0,0.0,0.0,16.0,1.0,1.0,6.0,2.0,4.0,50.0,50.0,66.0,6.6,16.0,1.0,1.0,0.0,1,16.6,0.0,0.0,1.0,0.0,4.0,4.0,4.0,1,1,0,4.0,1,0,8.0,8.0,0.0,5.0,1.0,0.0,0.0,0.0,-1.0,-1.0,1.0,1.0,9.0,4.0,5.0,1.0,1.0,1.0,6.0,1.0,6.0,2.0,1.0,3.0,1.0,0.0,0.0,1.0,0.0,0.0,0.0,0.0,0.0,0.0,0.0,22.0,4.0,3.0,,"When the probability of earning points was equal between the two options, I chose the option with more points available.",1,1,1,0926,1,0.0
2,lgqm9rk6,0,37,36,Non_clairvoyant_dynamic,Results,2021-09-26 16:36:04.805403,1,55.0,5kbhy2vn,0,0.1,Non_clairvoyant_dynamic,0.0,2,55.0,2.0,2.0,2.0,1,0,0,0,0,0,2.0,1,0,0,0,0,0,4.0,4.0,8.0,2.0,0.0,0.0,8.0,2.0,-2.0,5.0,1.0,0.0,2.0,0.0,2.0,52.0,50.0,55.0,5.5,5.0,1.0,1.0,0.0,9,15.5,0.0,0.0,1.0,0.0,4.0,4.0,2.0,1,0,0,4.0,1,0,4.0,8.0,3.0,2.0,0.0,1.0,4.0,2.0,0.0,2.0,1.0,0.0,2.0,0.0,2.0,0.0,0.0,0.0,2.0,1.0,2.0,2.0,1.0,4.0,0.0,0.0,0.0,1.0,0.0,0.0,1.0,1.0,0.0,0.0,1.0,22.0,5.0,,,,2,1,1,0926,1,1.0
3,0i7ewayj,0,37,36,Non_clairvoyant_dynamic,Results,2021-09-26 16:36:30.243542,1,56.0,5kbhy2vn,0,0.1,Non_clairvoyant_dynamic,0.0,3,56.0,2.0,2.0,2.0,1,0,0,0,0,0,2.0,1,0,0,0,0,0,4.0,4.0,2.0,4.0,0.0,0.0,2.0,2.0,-4.0,6.0,1.0,1.0,6.0,0.0,6.0,52.0,48.0,56.0,5.6,8.0,1.0,1.0,1.0,8,15.6,0.0,0.0,1.0,0.0,4.0,4.0,2.0,1,0,0,6.0,0,1,4.0,12.0,3.0,2.0,1.0,0.0,3.0,0.0,1.0,1.0,0.0,1.0,5.0,0.0,5.0,0.0,1.0,1.0,2.0,1.0,12.0,4.0,1.0,2.0,0.0,0.0,0.0,1.0,1.0,1.0,1.0,1.0,1.0,1.0,0.0,20.0,7.0,3.8,"In the first period, I considered that I am likely to get the item with the highest bid so I bid the highest I could.",I made the decision by assuming that paying the membership fee would lead to a greater reward in the end. ,3,1,1,0926,1,0.0
4,pd9l0s73,0,37,36,Non_clairvoyant_dynamic,Results,2021-09-26 16:36:48.051127,1,58.0,5kbhy2vn,0,0.1,Non_clairvoyant_dynamic,0.0,4,58.0,2.0,2.0,2.0,1,0,0,0,0,0,2.0,1,0,0,0,0,0,4.0,4.0,8.0,2.0,1.0,1.0,2.0,0.0,0.0,8.0,1.0,1.0,6.0,2.0,4.0,50.0,50.0,58.0,5.8,8.0,1.0,1.0,0.0,7,15.8,0.0,0.0,1.0,0.0,4.0,4.0,4.0,1,1,0,4.0,1,0,8.0,8.0,0.0,5.0,1.0,1.0,4.0,0.0,0.0,0.0,1.0,1.0,13.0,4.0,9.0,1.0,1.0,1.0,5.0,1.0,4.0,2.0,1.0,4.0,1.0,1.0,1.0,1.0,1.0,0.0,0.0,0.0,0.0,0.0,1.0,20.0,2.0,3.95,Random,"It depends on the chance to make more money. If I have the 1/10 chance to win 10 and 9/10 to win 8, I definitely would choose it. I have low risk to lose money and more likely to make ends meet. With the increase of proability of  earning more(16), I might choose to take a chance.",4,1,1,0926,1,0.0
5,bzrelmgk,0,37,36,Non_clairvoyant_dynamic,Results,2021-09-26 16:37:02.884912,1,58.0,5kbhy2vn,0,0.1,Non_clairvoyant_dynamic,0.0,5,58.0,2.0,2.0,2.0,1,0,0,0,0,0,2.0,1,0,0,0,0,0,4.0,4.0,8.0,2.0,1.0,0.0,8.0,0.0,-2.0,8.0,1.0,0.0,4.0,2.0,2.0,50.0,48.0,58.0,5.8,10.0,1.0,1.0,0.0,2,15.8,0.0,0.0,1.0,0.0,4.0,4.0,2.0,1,1,0,4.0,1,0,4.0,8.0,2.0,3.0,1.0,0.0,2.0,0.0,-1.0,-1.0,0.0,1.0,5.0,0.0,5.0,0.0,1.0,1.0,3.0,1.0,6.0,2.0,1.0,2.0,1.0,0.0,1.0,1.0,1.0,0.0,1.0,1.0,0.0,0.0,0.0,23.0,3.0,8.9,,,5,1,1,0926,1,1.0
6,q8uaji22,0,37,36,Non_clairvoyant_dynamic,Results,2021-09-26 16:37:24.561358,1,57.0,5kbhy2vn,0,0.1,Non_clairvoyant_dynamic,0.0,6,57.0,2.0,2.0,2.0,1,0,0,0,0,0,2.0,1,0,0,0,0,0,4.0,4.0,8.0,2.0,0.0,1.0,2.0,2.0,0.0,7.0,1.0,1.0,4.0,0.0,4.0,52.0,52.0,57.0,5.7,5.0,1.0,1.0,0.0,8,15.7,0.0,0.0,1.0,0.0,4.0,4.0,2.0,1,0,1,4.0,1,0,4.0,8.0,1.0,4.0,1.0,1.0,4.0,-2.0,0.0,-2.0,1.0,1.0,12.0,4.0,8.0,1.0,1.0,1.0,4.0,1.0,4.0,2.0,1.0,2.0,1.0,1.0,1.0,1.0,0.0,0.0,0.0,0.0,0.0,0.0,0.0,18.0,7.0,,Max out wager to amount I had to start,"Max out wagers so spend all in betting, but don't go over what I had",6,1,1,0926,1,0.0
7,netzk6ig,0,37,36,Non_clairvoyant_dynamic,Results,2021-09-26 16:37:26.989063,1,62.0,5kbhy2vn,0,0.1,Non_clairvoyant_dynamic,0.0,7,62.0,2.0,2.0,4.0,0,1,0,0,0,0,2.0,1,0,0,0,0,0,8.0,4.0,2.0,4.0,0.0,1.0,2.0,4.0,0.0,12.0,1.0,1.0,6.0,0.0,6.0,54.0,54.0,62.0,6.2,8.0,1.0,1.0,1.0,6,16.2,0.0,0.0,1.0,0.0,4.0,4.0,4.0,0,1,0,4.0,1,0,8.0,8.0,0.0,5.0,0.0,1.0,4.0,4.0,0.0,4.0,1.0,1.0,9.0,0.0,9.0,1.0,1.0,1.0,5.0,1.0,6.0,4.0,1.0,3.0,1.0,1.0,1.0,1.0,1.0,0.0,0.0,0.0,0.0,0.0,1.0,22.0,7.0,,,"I chose the option with the best chances of earning the most points. As the fifth and sixth decisions were closer to 50/50, I decided to risk getting less for the chance of getting more points.",15,1,1,0926,1,1.0
8,pncunl05,0,37,36,Non_clairvoyant_dynamic,Results,2021-09-26 16:37:44.848920,1,70.0,5kbhy2vn,0,0.1,Non_clairvoyant_dynamic,0.0,8,70.0,2.0,2.0,4.0,0,1,0,0,0,0,2.0,1,0,0,0,0,0,8.0,4.0,2.0,4.0,0.0,1.0,2.0,4.0,0.0,20.0,1.0,1.0,6.0,0.0,6.0,54.0,54.0,70.0,7.0,16.0,1.0,1.0,1.0,2,17.0,0.0,0.0,1.0,0.0,4.0,4.0,2.0,1,0,0,4.0,1,0,4.0,8.0,2.0,3.0,0.0,1.0,4.0,2.0,0.0,2.0,1.0,1.0,7.0,0.0,7.0,0.0,1.0,1.0,3.0,1.0,6.0,4.0,1.0,2.0,1.0,1.0,1.0,1.0,0.0,0.0,0.0,0.0,0.0,0.0,1.0,23.0,5.0,,,,7,1,1,0926,1,1.0
9,umt6sgy3,0,37,36,Non_clairvoyant_dynamic,Results,2021-09-26 16:38:05.740840,1,55.0,5kbhy2vn,0,0.1,Non_clairvoyant_dynamic,0.0,9,55.0,2.0,2.0,4.0,0,1,0,0,0,0,4.0,0,1,0,0,0,0,8.0,8.0,0.0,6.0,1.0,0.0,0.0,2.0,-2.0,5.0,1.0,1.0,8.0,2.0,6.0,52.0,50.0,55.0,5.5,5.0,1.0,1.0,1.0,8,15.5,0.0,0.0,1.0,0.0,4.0,4.0,6.0,0,0,1,4.0,1,0,12.0,8.0,0.0,5.0,1.0,0.0,0.0,2.0,-1.0,1.0,1.0,1.0,9.0,4.0,5.0,1.0,1.0,1.0,12.0,1.0,8.0,8.0,1.0,4.0,0.0,0.0,0.0,0.0,0.0,0.0,0.0,0.0,0.0,0.0,1.0,25.0,5.0,,,,8,1,1,0926,1,1.0
10,s3esqf9z,0,37,36,Non_clairvoyant_dynamic,Results,2021-09-26 16:38:32.256530,1,60.0,5kbhy2vn,0,0.1,Non_clairvoyant_dynamic,0.0,10,60.0,2.0,2.0,4.0,0,1,0,0,0,0,4.0,0,1,0,0,0,0,8.0,8.0,2.0,4.0,0.0,0.0,2.0,4.0,-2.0,10.0,1.0,1.0,6.0,0.0,6.0,54.0,52.0,60.0,6.0,8.0,1.0,1.0,1.0,10,16.0,0.0,0.0,1.0,0.0,4.0,4.0,4.0,0,1,0,4.0,1,0,8.0,8.0,1.0,4.0,0.0,1.0,4.0,4.0,0.0,4.0,1.0,1.0,8.0,0.0,8.0,1.0,1.0,1.0,4.0,1.0,6.0,4.0,1.0,2.0,0.0,1.0,1.0,1.0,1.0,0.0,0.0,0.0,0.0,0.0,0.0,19.0,2.0,3.8,I picked the higher percentage as my final decision.,I tried to even the options out by putting one half as option 1 and the other as option 2.,9,1,1,0926,1,0.0
11,ws8vvaji,0,37,36,Non_clairvoyant_dynamic,Results,2021-09-26 16:38:51.599295,1,61.0,5kbhy2vn,0,0.1,Non_clairvoyant_dynamic,0.0,11,61.0,2.0,2.0,2.0,1,0,0,0,0,0,8.0,0,0,1,0,0,0,4.0,16.0,8.0,2.0,1.0,1.0,2.0,0.0,6.0,11.0,1.0,1.0,6.0,2.0,4.0,50.0,56.0,61.0,6.1,5.0,1.0,1.0,0.0,6,16.1,0.0,0.0,1.0,0.0,4.0,4.0,2.0,1,0,0,6.0,0,1,4.0,12.0,4.0,1.0,1.0,1.0,4.0,0.0,2.0,2.0,0.0,1.0,5.0,0.0,5.0,0.0,1.0,1.0,1.0,1.0,4.0,2.0,1.0,6.0,1.0,1.0,1.0,1.0,0.0,0.0,0.0,0.0,0.0,0.0,1.0,19.0,3.0,,Take minimal risks and aim to minimize possible loss. My bids were made so I couldn't pay more than my secret value.,"I chose option B when I was more likely to get a higher profit in tokens, and because I had precisely 56 tokens, I felt fine. Even 5 points would top me off to the next dollar amount.",10,1,1,0926,1,0.0
12,jr6clsvq,0,37,36,Non_clairvoyant_dynamic,Results,2021-09-26 16:38:54.534503,1,58.0,5kbhy2vn,0,0.1,Non_clairvoyant_dynamic,0.0,12,58.0,2.0,2.0,2.0,1,0,0,0,0,0,8.0,0,0,1,0,0,0,4.0,16.0,8.0,2.0,0.0,0.0,8.0,2.0,-2.0,8.0,1.0,1.0,10.0,0.0,10.0,52.0,50.0,58.0,5.8,8.0,1.0,1.0,1.0,9,15.8,0.0,0.0,1.0,0.0,4.0,4.0,4.0,1,1,0,4.0,1,0,8.0,8.0,1.0,4.0,0.0,1.0,4.0,4.0,0.0,4.0,1.0,1.0,8.0,0.0,8.0,1.0,1.0,1.0,4.0,1.0,4.0,2.0,1.0,8.0,1.0,1.0,1.0,1.0,1.0,1.0,1.0,0.0,0.0,0.0,1.0,27.0,3.0,3.8,Pay as much as my true value,Pay membership fee and bid as much as my true value,16,1,1,0926,1,1.0
13,q3iris25,0,37,36,Non_clairvoyant_dynamic,Results,2021-09-26 16:39:13.575334,1,68.0,5kbhy2vn,0,0.1,Non_clairvoyant_dynamic,0.0,13,68.0,2.0,2.0,4.0,0,1,0,0,0,0,8.0,0,0,1,0,0,0,8.0,16.0,2.0,4.0,1.0,1.0,2.0,2.0,6.0,18.0,1.0,1.0,8.0,2.0,6.0,52.0,58.0,68.0,6.8,10.0,1.0,1.0,1.0,3,16.8,0.0,0.0,1.0,0.0,4.0,4.0,6.0,0,0,1,6.0,0,1,12.0,12.0,0.0,5.0,1.0,1.0,4.0,2.0,2.0,4.0,1.0,1.0,13.0,4.0,9.0,1.0,1.0,1.0,5.0,1.0,6.0,4.0,1.0,5.0,1.0,1.0,1.0,1.0,1.0,1.0,1.0,0.0,0.0,0.0,1.0,28.0,10.0,4.0,I will usually choose a bid higher than the value of the third quantile of the whole data distribution (75% or higher),Risk management. I can only trust my luck when the probability can reach 0.8 or higher.,11,1,1,0926,1,1.0
14,6il5gfhb,0,37,36,Non_clairvoyant_dynamic,Results,2021-09-26 16:39:29.204065,1,68.0,5kbhy2vn,0,0.1,Non_clairvoyant_dynamic,0.0,14,68.0,2.0,2.0,4.0,0,1,0,0,0,0,8.0,0,0,1,0,0,0,8.0,16.0,2.0,4.0,1.0,0.0,2.0,2.0,0.0,18.0,1.0,0.0,2.0,2.0,0.0,52.0,52.0,68.0,6.8,16.0,1.0,0.0,0.0,1,16.8,0.0,0.0,1.0,0.0,4.0,4.0,6.0,0,0,1,4.0,1,0,12.0,8.0,1.0,4.0,0.0,0.0,1.0,6.0,0.0,6.0,1.0,,0.0,0.0,0.0,1.0,0.0,0.0,4.0,0.0,,4.0,0.0,,1.0,1.0,1.0,1.0,0.0,0.0,0.0,0.0,0.0,1.0,1.0,21.0,5.0,3.0,I made decisions in the first period by analyzing the percentage and the total random number .,By bidding a little more as i will get the price for secret price it self even if i bid more.,12,1,1,0926,1,1.0
15,1yylmmsk,0,37,36,Non_clairvoyant_dynamic,Results,2021-09-26 16:39:51.698824,1,68.0,5kbhy2vn,0,0.1,Non_clairvoyant_dynamic,0.0,15,68.0,2.0,2.0,4.0,0,1,0,0,0,0,16.0,0,0,0,1,0,0,8.0,32.0,8.0,2.0,0.0,0.0,8.0,4.0,6.0,18.0,1.0,1.0,10.0,0.0,10.0,54.0,60.0,68.0,6.8,8.0,1.0,1.0,1.0,8,16.8,0.0,0.0,1.0,0.0,4.0,4.0,4.0,0,1,1,4.0,1,0,8.0,8.0,2.0,3.0,1.0,1.0,4.0,0.0,0.0,0.0,0.0,1.0,7.0,0.0,7.0,0.0,1.0,1.0,3.0,1.0,4.0,2.0,1.0,16.0,1.0,1.0,1.0,1.0,1.0,0.0,0.0,0.0,0.0,0.0,1.0,23.0,5.0,3.9,By assurance that I will not loose money. I can only gain,The probability of getting a high value is lower in second period so I decided to buy membership which is just 2 points and I decided based on my value,13,1,1,0926,1,1.0
16,ckm0o9v2,0,37,36,Non_clairvoyant_dynamic,Results,2021-09-26 16:40:09.581468,1,90.0,5kbhy2vn,0,0.1,Non_clairvoyant_dynamic,0.0,16,90.0,2.0,2.0,2.0,1,0,0,0,0,0,32.0,0,0,0,0,1,0,4.0,64.0,4.0,3.0,0.0,1.0,2.0,2.0,30.0,40.0,1.0,1.0,5.0,0.0,5.0,52.0,82.0,90.0,9.0,8.0,1.0,1.0,1.0,6,19.0,0.0,0.0,1.0,0.0,4.0,4.0,4.0,0,1,0,6.0,0,1,8.0,12.0,1.0,4.0,1.0,0.0,1.0,0.0,1.0,1.0,1.0,1.0,9.0,4.0,5.0,1.0,1.0,1.0,4.0,1.0,8.0,3.0,1.0,36.0,1.0,1.0,1.0,0.0,1.0,0.0,1.0,0.0,1.0,0.0,0.0,23.0,5.0,9.0,,,14,1,1,0926,1,0.0
1,y9jj1p01,0,25,24,Static_mechanism_worse_1,Results,2021-09-26 16:46:21.030596,1,66.0,t8zrstny,0,0.1,Static_mechanism_worse_1,0.0,1,66.0,2.0,2.0,2.0,1,0,0,0,0,0,2.0,1,0,0,0,0,0,4.0,4.0,,,,,,0.0,0.0,16.0,0.0,1.0,2.0,0.0,2.0,50.0,50.0,66.0,6.6,16.0,,,,4,16.6,0.0,0.0,,,4.0,4.0,6.0,0,1,1,4.0,1,0,12.0,8.0,,,,,,2.0,0.0,2.0,1.0,1.0,8.0,4.0,4.0,,,,6.0,,5.0,1.0,,2.0,1.0,0.0,1.0,1.0,0.0,1.0,0.0,0.0,1.0,1.0,1.0,24.0,5.0,,the higher the probability the better are the chances.,the higher the probability the better are the chances.,17,1,1,0926,3,1.0
2,6jzq3ofk,0,25,24,Static_mechanism_worse_1,Results,2021-09-26 16:46:39.626380,1,60.0,t8zrstny,0,0.1,Static_mechanism_worse_1,0.0,2,60.0,2.0,2.0,4.0,0,1,0,0,0,0,2.0,1,0,0,0,0,0,8.0,4.0,,,,,,2.0,0.0,10.0,1.0,1.0,4.0,2.0,2.0,52.0,52.0,60.0,6.0,8.0,,,,9,16.0,0.0,0.0,,,4.0,4.0,2.0,1,0,1,6.0,0,1,4.0,12.0,,,,,,0.0,2.0,2.0,0.0,1.0,4.0,0.0,4.0,,,,3.0,,10.0,7.0,,4.0,1.0,1.0,1.0,1.0,1.0,1.0,0.0,0.0,0.0,0.0,1.0,20.0,5.0,,,,18,1,1,0926,3,0.0
3,lcgs4dzs,0,25,24,Static_mechanism_worse_1,Results,2021-09-26 16:46:55.367048,1,59.0,t8zrstny,0,0.1,Static_mechanism_worse_1,0.0,3,59.0,2.0,2.0,4.0,0,1,0,0,0,0,4.0,0,1,0,0,0,0,8.0,8.0,,,,,,2.0,2.0,9.0,1.0,1.0,4.0,2.0,2.0,52.0,54.0,59.0,5.9,5.0,,,,6,15.9,0.0,0.0,,,4.0,4.0,4.0,0,1,0,6.0,0,1,8.0,12.0,,,,,,0.0,2.0,2.0,1.0,1.0,8.0,4.0,4.0,,,,5.0,,8.0,6.0,,3.0,1.0,1.0,0.0,0.0,0.0,1.0,1.0,1.0,0.0,0.0,1.0,21.0,7.0,3.97,"I wasn't sure I completely understood what was expected, but I put higher numbers to always get the item.",I randomly chose 5 options from both sides.,19,1,1,0926,3,0.0
4,5ky5bsvz,0,25,24,Static_mechanism_worse_1,Results,2021-09-26 16:47:18.864890,1,64.0,t8zrstny,0,0.1,Static_mechanism_worse_1,0.0,4,64.0,2.0,2.0,4.0,0,1,0,0,0,0,4.0,0,1,0,0,0,0,8.0,8.0,,,,,,2.0,2.0,14.0,1.0,1.0,4.0,2.0,2.0,52.0,54.0,64.0,6.4,10.0,,,,1,16.4,0.0,0.0,,,4.0,4.0,6.0,1,0,1,4.0,1,0,12.0,8.0,,,,,,2.0,0.0,2.0,1.0,1.0,8.0,4.0,4.0,,,,8.0,,7.0,7.0,,5.0,1.0,1.0,1.0,1.0,1.0,0.0,0.0,0.0,0.0,0.0,0.0,21.0,7.0,3.61,I bid the highest number so I was most likely to get more points.,I bid the highest number so I was most likely to get more points.,20,1,1,0926,3,0.0
5,u0w48zrb,0,25,24,Static_mechanism_worse_1,Results,2021-09-26 16:47:44.939293,1,59.0,t8zrstny,0,0.1,Static_mechanism_worse_1,0.0,5,59.0,2.0,2.0,4.0,0,1,0,0,0,0,4.0,0,1,0,0,0,0,8.0,8.0,,,,,,2.0,2.0,9.0,1.0,1.0,4.0,2.0,2.0,52.0,54.0,59.0,5.9,5.0,,,,6,15.9,0.0,0.0,,,4.0,4.0,4.0,0,1,1,6.0,0,1,8.0,12.0,,,,,,0.0,2.0,2.0,1.0,1.0,8.0,4.0,4.0,,,,6.0,,5.0,4.0,,5.0,1.0,1.0,1.0,1.0,0.0,0.0,0.0,0.0,0.0,0.0,0.0,25.0,8.0,,,,21,1,1,0926,3,1.0
6,zeralvf3,0,25,24,Static_mechanism_worse_1,Results,2021-09-26 16:48:04.199565,1,66.0,t8zrstny,0,0.1,Static_mechanism_worse_1,0.0,6,66.0,2.0,2.0,2.0,1,0,0,0,0,0,8.0,0,0,1,0,0,0,4.0,16.0,,,,,,0.0,6.0,16.0,1.0,1.0,4.0,2.0,2.0,50.0,56.0,66.0,6.6,10.0,,,,5,16.6,0.0,0.0,,,4.0,4.0,4.0,0,1,0,6.0,0,1,8.0,12.0,,,,,,0.0,2.0,2.0,1.0,1.0,8.0,4.0,4.0,,,,8.0,,10.0,3.0,,10.0,0.0,0.0,0.0,1.0,1.0,1.0,0.0,0.0,0.0,0.0,1.0,18.0,2.0,3.5,"I was going off of probability, but then I realized that it was a near guarantee the entire time, so the last one was where I actually began to profit",I had reverted back to probability and played it marginally safe.,22,1,1,0926,3,0.0
7,s8nq2jzy,0,25,24,Static_mechanism_worse_1,Results,2021-09-26 16:48:18.168121,1,74.0,t8zrstny,0,0.1,Static_mechanism_worse_1,0.0,7,74.0,2.0,2.0,4.0,0,1,0,0,0,0,8.0,0,0,1,0,0,0,8.0,16.0,,,,,,2.0,6.0,24.0,1.0,1.0,4.0,2.0,2.0,52.0,58.0,74.0,7.4,16.0,,,,3,17.4,0.0,0.0,,,4.0,4.0,4.0,0,1,1,4.0,1,0,8.0,8.0,,,,,,0.0,0.0,0.0,1.0,1.0,8.0,4.0,4.0,,,,7.0,,8.0,3.0,,9.0,1.0,0.0,0.0,0.0,0.0,0.0,0.0,0.0,0.0,0.0,1.0,25.0,5.0,3.74,I just make my decision on the bid higher than the secret price.,"I chose the higher bid number at first, and I try to make a decision that the bid higher than the secret price.",23,1,1,0926,3,1.0
8,xo91hbfz,0,25,24,Static_mechanism_worse_1,Results,2021-09-26 16:48:38.914271,1,80.0,t8zrstny,0,0.1,Static_mechanism_worse_1,0.0,8,80.0,2.0,2.0,2.0,1,0,0,0,0,0,16.0,0,0,0,1,0,0,4.0,32.0,,,,,,0.0,14.0,30.0,1.0,1.0,4.0,2.0,2.0,50.0,64.0,80.0,8.0,16.0,,,,4,18.0,0.0,0.0,,,4.0,4.0,4.0,1,1,0,4.0,1,0,8.0,8.0,,,,,,0.0,0.0,0.0,1.0,0.0,4.0,4.0,0.0,,,,4.0,,2.0,3.0,,5.0,1.0,0.0,0.0,0.0,0.0,0.0,0.0,0.0,0.0,0.0,0.0,30.0,5.0,3.85,Based on the value given and percentage of others' values,Based on the probability,24,1,1,0926,3,1.0
9,cm1auesb,0,24,24,Static_mechanism_worse_1,Results,2021-09-26 17:43:21.445210,1,74.0,t8zrstny,0,0.1,Static_mechanism_worse_1,0.0,9,74.0,2.0,2.0,4.0,0,1,0,0,0,0,16.0,0,0,0,1,0,0,8.0,32.0,,,,,,2.0,14.0,24.0,1.0,1.0,4.0,2.0,2.0,52.0,66.0,74.0,7.4,8.0,,,,10,17.4,0.0,0.0,,,4.0,4.0,4.0,0,1,0,4.0,1,0,8.0,8.0,,,,,,0.0,0.0,0.0,1.0,1.0,8.0,4.0,4.0,,,,4.0,,6.0,8.0,,32.0,1.0,1.0,1.0,1.0,1.0,0.0,0.0,0.0,0.0,0.0,1.0,21.0,7.0,3.0,Making the maximum bid as its always going be over or equal to the robot seller's price.,Keeping my decission. ,22,1,1,0926,3,0.0
10,cdju7gsl,0,25,24,Static_mechanism_worse_1,Results,2021-09-26 17:43:46.585734,1,76.0,t8zrstny,0,0.1,Static_mechanism_worse_1,0.0,10,76.0,2.0,2.0,4.0,0,1,0,0,0,0,16.0,0,0,0,1,0,0,8.0,32.0,,,,,,2.0,14.0,26.0,1.0,1.0,4.0,2.0,2.0,52.0,66.0,76.0,7.6,10.0,,,,5,17.6,0.0,0.0,,,4.0,4.0,6.0,0,0,1,4.0,1,0,12.0,8.0,,,,,,2.0,0.0,2.0,1.0,1.0,8.0,4.0,4.0,,,,6.0,,7.0,4.0,,14.0,1.0,1.0,0.0,1.0,1.0,0.0,1.0,1.0,1.0,1.0,0.0,20.0,5.0,3.3,I mostly choose the middle value of the number when I had a small number of tokens. And 1/4th of the total value of my tokens when the number was higher ,It was randomly,23,1,1,0926,3,0.0
11,63qt1nug,0,25,24,Static_mechanism_worse_1,Results,2021-09-26 17:44:35.254609,1,88.0,t8zrstny,0,0.1,Static_mechanism_worse_1,0.0,11,88.0,2.0,2.0,2.0,1,0,0,0,0,0,32.0,0,0,0,0,1,0,4.0,64.0,,,,,,0.0,30.0,38.0,1.0,1.0,4.0,2.0,2.0,50.0,80.0,88.0,8.8,8.0,,,,8,18.8,0.0,0.0,,,4.0,4.0,6.0,0,1,1,4.0,1,0,12.0,8.0,,,,,,2.0,0.0,2.0,1.0,0.0,4.0,4.0,0.0,,,,4.0,,3.0,2.0,,26.0,1.0,1.0,1.0,1.0,1.0,1.0,0.0,0.0,0.0,0.0,1.0,22.0,5.0,3.3,I put my bid near the true value price.,I only went with option B when the chances to get 16 was 60% or higher,25,1,1,0926,3,0.0
12,lypz6u9f,0,25,24,Static_mechanism_worse_1,Results,2021-09-26 17:45:12.025036,1,90.0,t8zrstny,0,0.1,Static_mechanism_worse_1,0.0,12,90.0,2.0,2.0,2.0,1,0,0,0,0,0,32.0,0,0,0,0,1,0,4.0,64.0,,,,,,0.0,30.0,40.0,1.0,1.0,4.0,2.0,2.0,50.0,80.0,90.0,9.0,10.0,,,,5,19.0,0.0,0.0,,,4.0,4.0,6.0,0,0,1,4.0,1,0,12.0,8.0,,,,,,2.0,0.0,2.0,1.0,1.0,8.0,4.0,4.0,,,,7.0,,5.0,4.0,,30.0,1.0,1.0,1.0,1.0,1.0,0.0,0.0,0.0,0.0,0.0,0.0,19.0,9.0,3.81,"The decision I made in the first period was based on me estimating in my head the chances of the unknown value falling into a specific range, then attempting to pick a number in the range that I thought would maximize my chances of profit.","The same as the first; mental math and the estimation of values. The accuracy of this method can vary wildly, though.",26,1,1,0926,3,0.0
1,9zxfly46,0,37,36,Non_clairvoyant_dynamic_worse_2,Results,2021-09-27 16:39:46.345101,1,66.0,gxarmrj0,0,0.1,Non_clairvoyant_dynamic_worse_2,0.0,1,66.0,2.0,2.0,2.0,1,0,0,0,0,0,2.0,1,0,0,0,0,0,4.0,4.0,0.0,3.0,1.0,1.0,2.0,0.0,0.0,16.0,1.0,1.0,7.0,2.0,5.0,50.0,50.0,66.0,6.6,16.0,1.0,1.0,1.0,4,16.6,0.0,0.0,1.0,0.0,4.0,4.0,2.0,1,0,0,4.0,1,0,4.0,8.0,3.0,2.0,0.0,1.0,4.0,2.0,0.0,2.0,1.0,1.0,6.0,0.0,6.0,0.0,1.0,1.0,2.0,1.0,6.0,3.0,1.0,2.0,1.0,1.0,1.0,0.0,0.0,1.0,0.0,0.0,0.0,0.0,1.0,19.0,2.0,,"First decision was made based on luck, as the values could have been anywhere between 2 and 36 points.",Paid the membership fee to learn my true value and bid based on whether it would be greater or equal to the highest secret value which was 6.,1,1,1,0927,2,0.0
2,0rfgcynx,0,37,36,Non_clairvoyant_dynamic_worse_2,Results,2021-09-27 16:39:52.831992,1,57.0,gxarmrj0,0,0.1,Non_clairvoyant_dynamic_worse_2,0.0,2,57.0,2.0,2.0,2.0,1,0,0,0,0,0,2.0,1,0,0,0,0,0,4.0,4.0,0.0,3.0,0.0,1.0,2.0,2.0,0.0,7.0,1.0,1.0,5.0,0.0,5.0,52.0,52.0,57.0,5.7,5.0,1.0,1.0,1.0,6,15.7,0.0,0.0,1.0,0.0,4.0,4.0,2.0,1,0,0,6.0,0,1,4.0,12.0,2.0,3.0,0.0,1.0,4.0,2.0,2.0,4.0,1.0,1.0,7.0,0.0,7.0,0.0,1.0,1.0,3.0,1.0,10.0,4.0,1.0,4.0,1.0,1.0,1.0,1.0,0.0,0.0,0.0,0.0,0.0,0.0,1.0,18.0,7.0,4.0,playing to gain,playing to not lose points,2,1,1,0927,2,0.0
3,ir2uxuwq,0,37,36,Non_clairvoyant_dynamic_worse_2,Results,2021-09-27 16:40:11.922289,1,60.0,gxarmrj0,0,0.1,Non_clairvoyant_dynamic_worse_2,0.0,3,60.0,2.0,2.0,2.0,1,0,0,0,0,0,2.0,1,0,0,0,0,0,4.0,4.0,0.0,2.0,1.0,0.0,0.0,0.0,0.0,10.0,1.0,1.0,4.0,2.0,2.0,50.0,50.0,60.0,6.0,10.0,1.0,1.0,1.0,1,16.0,0.0,0.0,1.0,0.0,4.0,4.0,2.0,1,1,0,6.0,0,1,4.0,12.0,2.0,3.0,1.0,1.0,4.0,0.0,2.0,2.0,0.0,1.0,7.0,0.0,7.0,0.0,1.0,1.0,3.0,1.0,6.0,2.0,1.0,4.0,1.0,1.0,1.0,1.0,1.0,0.0,0.0,0.0,0.0,0.0,1.0,25.0,10.0,,,,3,1,1,0927,2,1.0
4,kl2605m9,0,37,36,Non_clairvoyant_dynamic_worse_2,Results,2021-09-27 16:40:16.221486,1,58.0,gxarmrj0,0,0.1,Non_clairvoyant_dynamic_worse_2,0.0,4,58.0,2.0,2.0,2.0,1,0,0,0,0,0,2.0,1,0,0,0,0,0,4.0,4.0,0.0,2.0,1.0,0.0,0.0,0.0,0.0,8.0,1.0,1.0,4.0,2.0,2.0,50.0,50.0,58.0,5.8,8.0,1.0,1.0,1.0,7,15.8,0.0,0.0,1.0,0.0,4.0,4.0,4.0,0,1,0,6.0,0,1,8.0,12.0,1.0,4.0,1.0,1.0,4.0,0.0,0.0,0.0,1.0,,4.0,4.0,0.0,1.0,0.0,0.0,4.0,0.0,,2.0,1.0,4.0,1.0,1.0,1.0,0.0,1.0,0.0,0.0,0.0,0.0,0.0,0.0,18.0,9.0,3.4,By using the data given,By looking at what option seemed the best and I would get the most out of,4,1,1,0927,2,0.0
5,agg5y5xe,0,37,36,Non_clairvoyant_dynamic_worse_2,Results,2021-09-27 16:40:24.607244,1,66.0,gxarmrj0,0,0.1,Non_clairvoyant_dynamic_worse_2,0.0,5,66.0,2.0,2.0,2.0,1,0,0,0,0,0,2.0,1,0,0,0,0,0,4.0,4.0,0.0,3.0,1.0,1.0,2.0,0.0,0.0,16.0,1.0,0.0,5.0,2.0,3.0,50.0,50.0,66.0,6.6,16.0,1.0,0.0,1.0,3,16.6,0.0,0.0,1.0,0.0,4.0,4.0,2.0,1,0,0,6.0,0,1,4.0,12.0,2.0,3.0,1.0,1.0,4.0,0.0,2.0,2.0,0.0,1.0,7.0,0.0,7.0,0.0,1.0,1.0,3.0,1.0,6.0,4.0,1.0,0.0,1.0,1.0,1.0,0.0,0.0,0.0,0.0,0.0,0.0,0.0,1.0,25.0,5.0,,,,5,1,1,0927,2,1.0
6,i823pi4u,0,37,36,Non_clairvoyant_dynamic_worse_2,Results,2021-09-27 16:40:31.434126,1,68.0,gxarmrj0,0,0.1,Non_clairvoyant_dynamic_worse_2,0.0,6,68.0,2.0,2.0,2.0,1,0,0,0,0,0,2.0,1,0,0,0,0,0,4.0,4.0,0.0,2.0,0.0,1.0,2.0,2.0,0.0,18.0,1.0,1.0,4.0,0.0,4.0,52.0,52.0,68.0,6.8,16.0,1.0,1.0,1.0,3,16.8,0.0,0.0,1.0,0.0,4.0,4.0,2.0,1,0,1,4.0,1,0,4.0,8.0,2.0,3.0,0.0,1.0,4.0,2.0,0.0,2.0,1.0,1.0,7.0,0.0,7.0,0.0,1.0,1.0,3.0,1.0,6.0,2.0,1.0,3.0,1.0,1.0,1.0,0.0,0.0,0.0,0.0,0.0,0.0,0.0,0.0,20.0,2.0,3.25,I aimed to mostly make lower guesses for my bid in order to try to win the item for free based on my true value of the item.,"In the second period I took a gamble and decided to pay the membership fee since I thought I had a better chance of winning/breaking even than I did for losing, and again I tried to keep my bid low to avoid bidding higher than the secret price.",6,1,1,0927,2,0.0
7,5om9t5li,0,37,36,Non_clairvoyant_dynamic_worse_2,Results,2021-09-27 16:40:37.475260,1,66.0,gxarmrj0,0,0.1,Non_clairvoyant_dynamic_worse_2,0.0,7,66.0,2.0,2.0,2.0,1,0,0,0,0,0,2.0,1,0,0,0,0,0,4.0,4.0,0.0,3.0,1.0,1.0,2.0,0.0,0.0,16.0,1.0,1.0,7.0,2.0,5.0,50.0,50.0,66.0,6.6,16.0,1.0,1.0,1.0,3,16.6,0.0,0.0,1.0,0.0,4.0,4.0,2.0,1,0,0,4.0,1,0,4.0,8.0,2.0,3.0,0.0,1.0,4.0,2.0,0.0,2.0,1.0,0.0,3.0,0.0,3.0,0.0,0.0,0.0,3.0,1.0,0.0,4.0,1.0,4.0,1.0,1.0,1.0,1.0,0.0,0.0,0.0,0.0,0.0,0.0,0.0,20.0,5.0,,,,7,1,1,0927,2,0.0
8,tzmizb1j,0,37,36,Non_clairvoyant_dynamic_worse_2,Results,2021-09-27 16:40:42.482620,1,68.0,gxarmrj0,0,0.1,Non_clairvoyant_dynamic_worse_2,0.0,8,68.0,2.0,2.0,2.0,1,0,0,0,0,0,2.0,1,0,0,0,0,0,4.0,4.0,0.0,3.0,0.0,1.0,2.0,2.0,0.0,18.0,1.0,1.0,5.0,0.0,5.0,52.0,52.0,68.0,6.8,16.0,1.0,1.0,1.0,1,16.8,0.0,0.0,1.0,0.0,4.0,4.0,2.0,1,0,0,6.0,0,1,4.0,12.0,3.0,2.0,0.0,0.0,3.0,2.0,1.0,3.0,1.0,1.0,5.0,0.0,5.0,0.0,1.0,1.0,2.0,1.0,8.0,3.0,1.0,3.0,1.0,1.0,1.0,1.0,0.0,0.0,0.0,0.0,0.0,0.0,0.0,22.0,2.0,3.67,I wish for a free item with a average bet. ,"I wish to have the item with higher bit. However, I don't wish to risk my profit.",8,1,1,0927,2,0.0
9,iuypnrsi,0,37,36,Non_clairvoyant_dynamic_worse_2,Results,2021-09-27 16:40:47.845830,1,62.0,gxarmrj0,0,0.1,Non_clairvoyant_dynamic_worse_2,0.0,9,62.0,2.0,2.0,2.0,1,0,0,0,0,0,2.0,1,0,0,0,0,0,4.0,4.0,3.0,0.0,0.0,1.0,2.0,2.0,0.0,12.0,1.0,1.0,2.0,0.0,2.0,52.0,52.0,62.0,6.2,10.0,0.0,1.0,0.0,3,16.2,0.0,0.0,1.0,0.0,4.0,4.0,2.0,1,0,0,4.0,1,0,4.0,8.0,3.0,2.0,0.0,1.0,4.0,2.0,0.0,2.0,1.0,1.0,6.0,0.0,6.0,0.0,1.0,1.0,2.0,1.0,6.0,0.0,1.0,2.0,1.0,1.0,1.0,1.0,1.0,0.0,1.0,1.0,0.0,0.0,0.0,27.0,9.0,,,,9,1,1,0927,2,1.0
10,4m29aey4,0,37,36,Non_clairvoyant_dynamic_worse_2,Results,2021-09-27 16:40:55.026578,1,60.0,gxarmrj0,0,0.1,Non_clairvoyant_dynamic_worse_2,0.0,10,60.0,2.0,2.0,2.0,1,0,0,0,0,0,4.0,0,1,0,0,0,0,4.0,8.0,0.0,3.0,0.0,1.0,2.0,2.0,0.0,10.0,1.0,0.0,0.0,0.0,0.0,52.0,52.0,60.0,6.0,8.0,1.0,0.0,0.0,9,16.0,0.0,0.0,1.0,0.0,4.0,4.0,6.0,0,1,1,4.0,1,0,12.0,8.0,3.0,2.0,1.0,0.0,3.0,0.0,0.0,0.0,0.0,,0.0,0.0,0.0,0.0,0.0,0.0,2.0,0.0,,4.0,0.0,,1.0,1.0,1.0,1.0,1.0,0.0,0.0,0.0,0.0,0.0,0.0,21.0,4.0,4.0,I didn't want to take any big risks so I just lowballed my offers and refused to take the membership,"I looked at the risk and just divided it evenly, first half I chose option A and second half I chose option B",10,1,1,0927,2,1.0
11,3dszop05,0,37,36,Non_clairvoyant_dynamic_worse_2,Results,2021-09-27 16:41:10.344812,1,58.0,gxarmrj0,0,0.1,Non_clairvoyant_dynamic_worse_2,0.0,11,58.0,2.0,2.0,2.0,1,0,0,0,0,0,4.0,0,1,0,0,0,0,4.0,8.0,0.0,2.0,1.0,0.0,0.0,0.0,0.0,8.0,1.0,0.0,2.0,2.0,0.0,50.0,50.0,58.0,5.8,8.0,1.0,0.0,0.0,8,15.8,0.0,0.0,1.0,0.0,4.0,4.0,2.0,1,0,0,4.0,1,0,4.0,8.0,3.0,2.0,0.0,0.0,3.0,2.0,-1.0,1.0,1.0,1.0,5.0,0.0,5.0,0.0,1.0,1.0,2.0,1.0,4.0,2.0,0.0,,1.0,1.0,1.0,1.0,1.0,1.0,0.0,0.0,0.0,0.0,0.0,24.0,10.0,3.5,"i read the instructions carefully. i think the second period isn't worth losing the points - i had to pay membership fee and could only get the item by bidding higher than the price set by the seller. from the practice session, i noticed that there's a sentence which if i may paraphrase mean that people usually lose some money in the second round. power of suggestion? maybe. honestly, i haven't been feeling lucky so i'd rather not take my chances. so i tried not to lose money in the first period and just left it as is.",i didn't - i stopped at the first period.,11,1,1,0927,2,0.0
12,qhvn445o,0,37,36,Non_clairvoyant_dynamic_worse_2,Results,2021-09-27 16:41:20.228503,1,57.0,gxarmrj0,0,0.1,Non_clairvoyant_dynamic_worse_2,0.0,12,57.0,2.0,2.0,2.0,1,0,0,0,0,0,4.0,0,1,0,0,0,0,4.0,8.0,0.0,3.0,0.0,1.0,2.0,2.0,0.0,7.0,1.0,0.0,0.0,0.0,0.0,52.0,52.0,57.0,5.7,5.0,1.0,0.0,0.0,7,15.7,0.0,0.0,1.0,0.0,4.0,4.0,6.0,0,0,1,6.0,0,1,12.0,12.0,0.0,5.0,0.0,0.0,0.0,6.0,1.0,7.0,1.0,1.0,5.0,0.0,5.0,1.0,1.0,1.0,7.0,1.0,7.0,4.0,0.0,,1.0,1.0,1.0,0.0,0.0,0.0,0.0,0.0,0.0,0.0,1.0,18.0,6.0,,,,12,1,1,0927,2,0.0
13,gdody5cg,0,37,36,Non_clairvoyant_dynamic_worse_2,Results,2021-09-27 16:41:28.353842,1,60.0,gxarmrj0,0,0.1,Non_clairvoyant_dynamic_worse_2,0.0,13,60.0,2.0,2.0,2.0,1,0,0,0,0,0,4.0,0,1,0,0,0,0,4.0,8.0,0.0,2.0,1.0,0.0,0.0,0.0,2.0,10.0,1.0,1.0,4.0,2.0,2.0,50.0,52.0,60.0,6.0,8.0,1.0,1.0,1.0,6,16.0,0.0,0.0,1.0,0.0,4.0,4.0,2.0,1,0,1,4.0,1,0,4.0,8.0,1.0,4.0,1.0,0.0,1.0,-2.0,-1.0,-3.0,1.0,1.0,9.0,4.0,5.0,1.0,1.0,1.0,4.0,1.0,6.0,2.0,1.0,2.0,1.0,1.0,1.0,1.0,1.0,0.0,0.0,0.0,0.0,0.0,0.0,18.0,10.0,3.4,,,13,1,1,0927,2,0.0
14,j9mhpujs,0,37,36,Non_clairvoyant_dynamic_worse_2,Results,2021-09-27 16:41:38.193993,1,62.0,gxarmrj0,0,0.1,Non_clairvoyant_dynamic_worse_2,0.0,14,62.0,2.0,2.0,2.0,1,0,0,0,0,0,4.0,0,1,0,0,0,0,4.0,8.0,0.0,3.0,0.0,1.0,2.0,2.0,2.0,12.0,1.0,1.0,5.0,0.0,5.0,52.0,54.0,62.0,6.2,8.0,1.0,1.0,1.0,7,16.2,0.0,0.0,1.0,0.0,4.0,4.0,4.0,0,1,1,6.0,0,1,8.0,12.0,0.0,5.0,0.0,1.0,4.0,4.0,2.0,6.0,1.0,1.0,9.0,0.0,9.0,1.0,1.0,1.0,5.0,1.0,8.0,3.0,1.0,8.0,1.0,1.0,1.0,1.0,1.0,0.0,0.0,0.0,0.0,0.0,1.0,21.0,2.0,3.05,"I attempted to bid high enough to outbid competitors, but not extremely high.",I decided to maximize my chance of getting the bid by bidding the maximum I could.,14,1,1,0927,2,0.0
15,lbon7xv9,0,37,36,Non_clairvoyant_dynamic_worse_2,Results,2021-09-27 16:41:49.246723,1,59.0,gxarmrj0,0,0.1,Non_clairvoyant_dynamic_worse_2,0.0,15,59.0,2.0,2.0,4.0,0,1,0,0,0,0,2.0,1,0,0,0,0,0,8.0,4.0,0.0,3.0,1.0,0.0,0.0,2.0,-1.0,9.0,1.0,1.0,5.0,2.0,3.0,52.0,51.0,59.0,5.9,8.0,1.0,1.0,1.0,6,15.9,0.0,0.0,1.0,0.0,4.0,4.0,6.0,1,0,1,4.0,1,0,12.0,8.0,0.0,5.0,1.0,1.0,4.0,2.0,0.0,2.0,1.0,1.0,13.0,4.0,9.0,1.0,1.0,1.0,10.0,1.0,4.0,4.0,1.0,4.0,1.0,1.0,1.0,1.0,1.0,1.0,1.0,1.0,0.0,0.0,0.0,20.0,3.0,,,,15,1,1,0927,2,0.0
16,b7w65mfk,0,37,36,Non_clairvoyant_dynamic_worse_2,Results,2021-09-27 16:41:57.114947,1,57.0,gxarmrj0,0,0.1,Non_clairvoyant_dynamic_worse_2,0.0,16,57.0,2.0,2.0,4.0,0,1,0,0,0,0,2.0,1,0,0,0,0,0,8.0,4.0,0.0,3.0,1.0,1.0,2.0,2.0,0.0,7.0,1.0,1.0,7.0,2.0,5.0,52.0,52.0,57.0,5.7,5.0,1.0,1.0,1.0,10,15.7,0.0,0.0,1.0,0.0,4.0,4.0,6.0,0,1,1,4.0,1,0,12.0,8.0,0.0,5.0,1.0,0.0,0.0,2.0,-1.0,1.0,1.0,1.0,9.0,4.0,5.0,1.0,0.0,1.0,8.0,1.0,3.0,6.0,1.0,2.0,1.0,0.0,1.0,1.0,0.0,1.0,0.0,0.0,1.0,0.0,0.0,20.0,10.0,3.12,I would always bid higher that the value of the item ,"Bid higher than the value of the item, but lower than the membership fee. ",16,1,1,0927,2,0.0
17,umnp1wr1,0,37,36,Non_clairvoyant_dynamic_worse_2,Results,2021-09-27 16:42:03.596979,1,59.0,gxarmrj0,0,0.1,Non_clairvoyant_dynamic_worse_2,0.0,17,59.0,2.0,2.0,4.0,0,1,0,0,0,0,2.0,1,0,0,0,0,0,8.0,4.0,0.0,3.0,0.0,0.0,0.0,4.0,0.0,9.0,1.0,0.0,0.0,0.0,0.0,54.0,54.0,59.0,5.9,5.0,1.0,0.0,0.0,7,15.9,0.0,0.0,1.0,0.0,4.0,4.0,2.0,1,0,0,6.0,0,1,4.0,12.0,3.0,2.0,0.0,1.0,4.0,2.0,2.0,4.0,1.0,1.0,6.0,0.0,6.0,0.0,1.0,1.0,2.0,1.0,6.0,4.0,0.0,,1.0,1.0,1.0,0.0,0.0,0.0,0.0,0.0,0.0,0.0,1.0,23.0,10.0,,,,17,1,1,0927,2,0.0
18,q35jl8r4,0,37,36,Non_clairvoyant_dynamic_worse_2,Results,2021-09-27 16:42:10.247824,1,56.0,gxarmrj0,0,0.1,Non_clairvoyant_dynamic_worse_2,0.0,18,56.0,2.0,2.0,4.0,0,1,0,0,0,0,2.0,1,0,0,0,0,0,8.0,4.0,0.0,3.0,1.0,0.0,0.0,2.0,-1.0,6.0,1.0,1.0,5.0,2.0,3.0,52.0,51.0,56.0,5.6,5.0,1.0,1.0,1.0,9,15.6,0.0,0.0,1.0,0.0,4.0,4.0,6.0,0,1,1,6.0,0,1,12.0,12.0,0.0,5.0,1.0,1.0,4.0,2.0,2.0,4.0,1.0,1.0,13.0,4.0,9.0,1.0,1.0,1.0,6.0,1.0,4.0,4.0,1.0,4.0,1.0,1.0,0.0,0.0,0.0,0.0,0.0,0.0,0.0,0.0,1.0,18.0,7.0,4.0,By weighing the risks versus the rewards to the best of my ability,Seeing if I was able to play the game in a more optimized way.,18,1,1,0927,2,0.0
19,8a6kde8e,0,37,36,Non_clairvoyant_dynamic_worse_2,Results,2021-09-27 16:42:18.882368,1,71.0,gxarmrj0,0,0.1,Non_clairvoyant_dynamic_worse_2,0.0,19,71.0,2.0,2.0,8.0,0,0,1,0,0,0,2.0,1,0,0,0,0,0,16.0,4.0,0.0,3.0,1.0,0.0,0.0,6.0,-1.0,21.0,1.0,1.0,5.0,2.0,3.0,56.0,55.0,71.0,7.1,16.0,1.0,1.0,1.0,2,17.1,0.0,0.0,1.0,0.0,4.0,4.0,6.0,0,0,1,6.0,0,1,12.0,12.0,1.0,4.0,0.0,0.0,1.0,6.0,1.0,7.0,1.0,1.0,5.0,0.0,5.0,1.0,1.0,1.0,4.0,1.0,4.0,6.0,1.0,2.0,0.0,1.0,1.0,0.0,0.0,1.0,1.0,0.0,1.0,0.0,0.0,18.0,9.0,,,,19,1,1,0927,2,0.0
